id,trial_num,resp,stim_shape,stim_side,block,congruency,item_type,log_rt,time_bin,cov_age,cov_female,cov_grade,ability_est
10501,9,1,heart,right,hearts test,congruent,heart_only,0.3625576070968879,1,10.0424365997314,0,4,1.0458320875113971
10501,13,1,heart,right,hearts test,congruent,heart_only,0.33289441527332897,2,10.0424365997314,0,4,1.0458320875113971
10501,15,1,heart,right,hearts test,congruent,heart_only,0.3708736633385454,2,10.0424365997314,0,4,1.0458320875113971
10501,19,1,heart,left,hearts test,congruent,heart_only,0.4246139269469252,2,10.0424365997314,0,4,1.0458320875113971
10501,29,1,flower,right,flowers test,incongruent,other,0.4021262068426498,2,10.0424365997314,0,4,1.0458320875113971
10501,30,1,flower,left,flowers test,incongruent,other,0.3920420877760237,2,10.0424365997314,0,4,1.0458320875113971
10501,35,1,flower,right,flowers test,incongruent,other,0.3839009301923238,3,10.0424365997314,0,4,1.0458320875113971
10501,45,1,flower,right,mixed test,incongruent,flower_mixed,0.5164100020598914,3,10.0424365997314,0,4,1.0458320875113971
10501,51,1,heart,right,mixed test,congruent,heart_mixed,0.4504384737508955,3,10.0424365997314,0,4,1.0458320875113971
10501,62,1,heart,right,mixed test,congruent,heart_mixed,0.543486406005539,3,10.0424365997314,0,4,1.0458320875113971
10501,65,1,heart,left,mixed test,congruent,heart_mixed,0.5382462193419829,3,10.0424365997314,0,4,1.0458320875113971
10501,66,1,flower,left,mixed test,incongruent,flower_mixed,0.5687171021817683,3,10.0424365997314,0,4,1.0458320875113971
10501,67,1,flower,right,mixed test,incongruent,flower_mixed,0.5855619698800079,3,10.0424365997314,0,4,1.0458320875113971
10501,68,1,heart,left,mixed test,congruent,heart_mixed,0.5128236264286637,3,10.0424365997314,0,4,1.0458320875113971
10501,70,1,heart,right,mixed test,congruent,heart_mixed,0.44276089285186127,3,10.0424365997314,0,4,1.0458320875113971
10502,13,1,heart,right,hearts test,congruent,heart_only,0.40346310543749125,2,10.1273097991943,0,4,-0.15981252591645534
10502,15,1,heart,right,hearts test,congruent,heart_only,0.5193888544264785,2,10.1273097991943,0,4,-0.15981252591645534
10502,16,1,heart,right,hearts test,congruent,heart_only,0.4376095614347315,2,10.1273097991943,0,4,-0.15981252591645534
10502,30,1,flower,left,flowers test,incongruent,other,0.4836599556932211,2,10.1273097991943,0,4,-0.15981252591645534
10502,35,1,flower,right,flowers test,incongruent,other,0.3811724155391198,3,10.1273097991943,0,4,-0.15981252591645534
10502,54,1,flower,left,mixed test,incongruent,flower_mixed,0.6064993738342731,3,10.1273097991943,0,4,-0.15981252591645534
10502,65,1,heart,left,mixed test,congruent,heart_mixed,0.4574248470388755,3,10.1273097991943,0,4,-0.15981252591645534
10502,73,1,flower,right,mixed test,incongruent,flower_mixed,0.5031965966014995,3,10.1273097991943,0,4,-0.15981252591645534
10503,13,1,heart,right,hearts test,congruent,heart_only,0.3873011374804931,2,10.2067079544067,0,4,0.9640699304576578
10503,16,1,heart,right,hearts test,congruent,heart_only,0.3590720685384538,2,10.2067079544067,0,4,0.9640699304576578
10503,17,1,heart,left,hearts test,congruent,heart_only,0.3513608491149636,2,10.2067079544067,0,4,0.9640699304576578
10503,18,1,heart,left,hearts test,congruent,heart_only,0.3590720685384538,2,10.2067079544067,0,4,0.9640699304576578
10503,39,1,flower,right,flowers test,incongruent,other,0.3541718137206139,3,10.2067079544067,0,4,0.9640699304576578
10503,40,1,flower,left,flowers test,incongruent,other,0.34995239817790563,3,10.2067079544067,0,4,0.9640699304576578
10503,42,0,heart,right,mixed test,congruent,heart_mixed,0.47623417899637155,3,10.2067079544067,0,4,0.9640699304576578
10503,43,1,heart,right,mixed test,congruent,heart_mixed,0.5001690435774618,3,10.2067079544067,0,4,0.9640699304576578
10503,44,1,heart,left,mixed test,congruent,heart_mixed,0.41475515501525706,3,10.2067079544067,0,4,0.9640699304576578
10503,50,1,flower,right,mixed test,incongruent,flower_mixed,0.4252677354043441,3,10.2067079544067,0,4,0.9640699304576578
10503,51,1,heart,right,mixed test,congruent,heart_mixed,0.4252677354043441,3,10.2067079544067,0,4,0.9640699304576578
10503,52,1,heart,left,mixed test,congruent,heart_mixed,0.4350239103497087,3,10.2067079544067,0,4,0.9640699304576578
10503,56,1,flower,right,mixed test,incongruent,flower_mixed,0.49103099643781106,3,10.2067079544067,0,4,0.9640699304576578
10503,62,0,heart,right,mixed test,congruent,heart_mixed,0.47685510419483734,3,10.2067079544067,0,4,0.9640699304576578
10503,65,1,heart,left,mixed test,congruent,heart_mixed,0.5399960010657705,3,10.2067079544067,0,4,0.9640699304576578
10503,68,1,heart,left,mixed test,congruent,heart_mixed,0.4971322966339882,3,10.2067079544067,0,4,0.9640699304576578
10503,70,1,heart,right,mixed test,congruent,heart_mixed,0.5607579925141997,3,10.2067079544067,0,4,0.9640699304576578
10504,9,1,heart,right,hearts test,congruent,heart_only,0.34429867287067695,1,10.2067079544067,1,4,0.9798853875243652
10504,18,1,heart,left,hearts test,congruent,heart_only,0.41475515501525706,2,10.2067079544067,1,4,0.9798853875243652
10504,31,1,flower,left,flowers test,incongruent,other,0.33217731233833225,2,10.2067079544067,1,4,0.9798853875243652
10504,40,1,flower,left,flowers test,incongruent,other,0.44147554563119756,3,10.2067079544067,1,4,0.9798853875243652
10504,42,1,heart,right,mixed test,congruent,heart_mixed,0.44852459756861124,3,10.2067079544067,1,4,0.9798853875243652
10504,43,1,heart,right,mixed test,congruent,heart_mixed,0.45679173527350503,3,10.2067079544067,1,4,0.9798853875243652
10504,48,1,heart,left,mixed test,congruent,heart_mixed,0.4668737362368079,3,10.2067079544067,1,4,0.9798853875243652
10504,49,1,flower,right,mixed test,incongruent,flower_mixed,0.5754891370917129,3,10.2067079544067,1,4,0.9798853875243652
10504,51,1,heart,right,mixed test,congruent,heart_mixed,0.45679173527350503,3,10.2067079544067,1,4,0.9798853875243652
10504,57,1,flower,left,mixed test,incongruent,flower_mixed,0.554459660786052,3,10.2067079544067,1,4,0.9798853875243652
10504,61,1,flower,left,mixed test,incongruent,flower_mixed,0.501381164937991,3,10.2067079544067,1,4,0.9798853875243652
10504,69,1,heart,right,mixed test,congruent,heart_mixed,0.5062150112083075,3,10.2067079544067,1,4,0.9798853875243652
10504,70,1,heart,right,mixed test,congruent,heart_mixed,0.462475362824944,3,10.2067079544067,1,4,0.9798853875243652
10504,73,1,flower,right,mixed test,incongruent,flower_mixed,0.4408322519454557,3,10.2067079544067,1,4,0.9798853875243652
10505,11,1,heart,left,hearts test,congruent,heart_only,0.5452270504833231,2,10.1273097991943,0,4,0.5740731865149559
10505,12,1,heart,right,hearts test,congruent,heart_only,0.302324349188651,2,10.1273097991943,0,4,0.5740731865149559
10505,14,1,heart,left,hearts test,congruent,heart_only,0.4027948795522855,2,10.1273097991943,0,4,0.5740731865149559
10505,17,1,heart,left,hearts test,congruent,heart_only,0.3660310388627573,2,10.1273097991943,0,4,0.5740731865149559
10505,31,1,flower,left,flowers test,incongruent,other,0.4356709501652302,2,10.1273097991943,0,4,0.5740731865149559
10505,33,1,flower,right,flowers test,incongruent,other,0.4259211166755468,2,10.1273097991943,0,4,0.5740731865149559
10505,38,1,flower,left,flowers test,incongruent,other,0.46875284734408285,3,10.1273097991943,0,4,0.5740731865149559
10505,39,1,flower,right,flowers test,incongruent,other,0.49408629976169266,3,10.1273097991943,0,4,0.5740731865149559
10505,45,1,flower,right,mixed test,incongruent,flower_mixed,0.44660705143933954,3,10.1273097991943,0,4,0.5740731865149559
10505,47,1,flower,left,mixed test,incongruent,flower_mixed,0.5181983780954038,3,10.1273097991943,0,4,0.5740731865149559
10505,52,0,heart,left,mixed test,congruent,heart_mixed,0.4934759854308776,3,10.1273097991943,0,4,0.5740731865149559
10505,53,1,heart,left,mixed test,congruent,heart_mixed,0.521765563804325,3,10.1273097991943,0,4,0.5740731865149559
10505,56,0,flower,right,mixed test,incongruent,flower_mixed,0.5504308783583501,3,10.1273097991943,0,4,0.5740731865149559
10505,63,1,flower,right,mixed test,incongruent,flower_mixed,0.5721088521828892,3,10.1273097991943,0,4,0.5740731865149559
10505,65,1,heart,left,mixed test,congruent,heart_mixed,0.6512829764612466,3,10.1273097991943,0,4,0.5740731865149559
10505,68,0,heart,left,mixed test,congruent,heart_mixed,0.5170064828410719,3,10.1273097991943,0,4,0.5740731865149559
10505,69,1,heart,right,mixed test,congruent,heart_mixed,0.7509442792861619,3,10.1273097991943,0,4,0.5740731865149559
10507,9,1,heart,right,hearts test,congruent,heart_only,0.4681268692328754,1,9,1,4,0.4387263621487581
10507,10,1,heart,left,hearts test,congruent,heart_only,0.4074631107708375,1,9,1,4,0.4387263621487581
10507,30,1,flower,left,flowers test,incongruent,other,0.46561903092791146,2,9,1,4,0.4387263621487581
10507,58,1,flower,left,mixed test,incongruent,flower_mixed,0.514618422004687,3,9,1,4,0.4387263621487581
10507,70,1,heart,right,mixed test,congruent,heart_mixed,0.4873522675803486,3,9,1,4,0.4387263621487581
10508,12,1,heart,right,hearts test,congruent,heart_only,0.3220834991691132,2,10.0424365997314,0,4,0.27762929722515584
10508,13,1,heart,right,hearts test,congruent,heart_only,0.35487332199210414,2,10.0424365997314,0,4,0.27762929722515584
10508,18,1,heart,left,hearts test,congruent,heart_only,0.43889988419440185,2,10.0424365997314,0,4,0.27762929722515584
10508,20,1,heart,right,hearts test,congruent,heart_only,0.32135859881116474,2,10.0424365997314,0,4,0.27762929722515584
10508,39,1,flower,right,flowers test,incongruent,other,0.3314596947976687,3,10.0424365997314,0,4,0.27762929722515584
10508,40,1,flower,left,flowers test,incongruent,other,0.5044050559630681,3,10.0424365997314,0,4,0.27762929722515584
10508,42,1,heart,right,mixed test,congruent,heart_mixed,0.511025603768657,3,10.0424365997314,0,4,0.27762929722515584
10508,43,1,heart,right,mixed test,congruent,heart_mixed,0.40011750178156913,3,10.0424365997314,0,4,0.27762929722515584
10508,63,1,flower,right,mixed test,incongruent,flower_mixed,0.5579000311519194,3,10.0424365997314,0,4,0.27762929722515584
10508,70,1,heart,right,mixed test,congruent,heart_mixed,0.5038010088290262,3,10.0424365997314,0,4,0.27762929722515584
10509,10,1,heart,left,hearts test,congruent,heart_only,0.39271753528566167,1,9.45653629302979,1,4,0.27777973086665636
10509,17,1,heart,left,hearts test,congruent,heart_only,0.5417427264007121,2,9.45653629302979,1,4,0.27777973086665636
10509,20,1,heart,right,hearts test,congruent,heart_only,0.458689869345462,2,9.45653629302979,1,4,0.27777973086665636
10509,35,1,flower,right,flowers test,incongruent,other,0.30158497762077224,3,9.45653629302979,1,4,0.27777973086665636
10509,36,1,flower,right,flowers test,incongruent,other,0.41144717978571177,3,9.45653629302979,1,4,0.27777973086665636
10509,37,1,flower,left,flowers test,incongruent,other,0.4252677354043441,3,9.45653629302979,1,4,0.27777973086665636
10509,43,0,heart,right,mixed test,congruent,heart_mixed,0.4330802751411378,3,9.45653629302979,1,4,0.27777973086665636
10509,44,0,heart,left,mixed test,congruent,heart_mixed,0.5007752879124892,3,9.45653629302979,1,4,0.27777973086665636
10509,45,1,flower,right,mixed test,incongruent,flower_mixed,0.6048622656923737,3,9.45653629302979,1,4,0.27777973086665636
10509,47,1,flower,left,mixed test,incongruent,flower_mixed,0.5429055172294024,3,9.45653629302979,1,4,0.27777973086665636
10509,51,0,heart,right,mixed test,congruent,heart_mixed,0.4861230111256188,3,9.45653629302979,1,4,0.27777973086665636
10509,56,1,flower,right,mixed test,incongruent,flower_mixed,0.5347374438123035,3,9.45653629302979,1,4,0.27777973086665636
10509,60,0,heart,right,mixed test,congruent,heart_mixed,0.514618422004687,3,9.45653629302979,1,4,0.27777973086665636
10509,67,1,flower,right,mixed test,incongruent,flower_mixed,0.6048622656923737,3,9.45653629302979,1,4,0.27777973086665636
10509,73,1,flower,right,mixed test,incongruent,flower_mixed,0.5044050559630681,3,9.45653629302979,1,4,0.27777973086665636
10510,12,1,heart,right,hearts test,congruent,heart_only,0.3220834991691132,2,10.1273097991943,0,4,0.1438328400944631
10510,13,1,heart,right,hearts test,congruent,heart_only,0.3541718137206139,2,10.1273097991943,0,4,0.1438328400944631
10510,15,1,heart,right,hearts test,congruent,heart_only,0.3089542077273207,2,10.1273097991943,0,4,0.1438328400944631
10510,18,1,heart,left,hearts test,congruent,heart_only,0.35346981298978397,2,10.1273097991943,0,4,0.1438328400944631
10510,30,1,flower,left,flowers test,incongruent,other,0.30748469974796055,2,10.1273097991943,0,4,0.1438328400944631
10510,33,1,flower,right,flowers test,incongruent,other,0.43243155633797864,2,10.1273097991943,0,4,0.1438328400944631
10510,38,1,flower,left,flowers test,incongruent,other,0.3199072197465178,3,10.1273097991943,0,4,0.1438328400944631
10510,40,1,flower,left,flowers test,incongruent,other,0.39271753528566167,3,10.1273097991943,0,4,0.1438328400944631
10510,44,0,heart,left,mixed test,congruent,heart_mixed,0.40945712937770185,3,10.1273097991943,0,4,0.1438328400944631
10510,45,0,flower,right,mixed test,incongruent,flower_mixed,0.4356709501652302,3,10.1273097991943,0,4,0.1438328400944631
10510,47,1,flower,left,mixed test,incongruent,flower_mixed,0.6151856390902335,3,10.1273097991943,0,4,0.1438328400944631
10510,48,1,heart,left,mixed test,congruent,heart_mixed,0.5062150112083075,3,10.1273097991943,0,4,0.1438328400944631
10510,63,1,flower,right,mixed test,incongruent,flower_mixed,0.4675004990276171,3,10.1273097991943,0,4,0.1438328400944631
10510,66,1,flower,left,mixed test,incongruent,flower_mixed,0.4885800148186709,3,10.1273097991943,0,4,0.1438328400944631
10510,71,1,flower,left,mixed test,incongruent,flower_mixed,0.5492768101402434,3,10.1273097991943,0,4,0.1438328400944631
10511,12,1,heart,right,hearts test,congruent,heart_only,0.33289441527332897,2,9,0,4,0.5979469627926336
10511,20,1,heart,right,hearts test,congruent,heart_only,0.2956502421009577,2,9,0,4,0.5979469627926336
10511,30,1,flower,left,flowers test,incongruent,other,0.36949244764934686,2,9,0,4,0.5979469627926336
10511,33,1,flower,right,flowers test,incongruent,other,0.5007752879124892,2,9,0,4,0.5979469627926336
10511,34,1,flower,left,flowers test,incongruent,other,0.39608794629556743,2,9,0,4,0.5979469627926336
10511,40,1,flower,left,flowers test,incongruent,other,0.3818552424690307,3,9,0,4,0.5979469627926336
10511,59,1,heart,left,mixed test,congruent,heart_mixed,0.5440669575457925,3,9,0,4,0.5979469627926336
10511,69,1,heart,right,mixed test,congruent,heart_mixed,0.44980092192821614,3,9,0,4,0.5979469627926336
10512,18,1,heart,left,hearts test,congruent,heart_only,0.39339252687389514,2,10.2915811538696,1,4,0.5909741573391007
10512,19,1,heart,left,hearts test,congruent,heart_only,0.5306282510621704,2,10.2915811538696,1,4,0.5909741573391007
10512,20,1,heart,right,hearts test,congruent,heart_only,0.31115442863692305,2,10.2915811538696,1,4,0.5909741573391007
10512,36,1,flower,right,flowers test,incongruent,other,0.5044050559630681,3,10.2915811538696,1,4,0.5909741573391007
10512,42,1,heart,right,mixed test,congruent,heart_mixed,0.42722659988967704,3,10.2915811538696,1,4,0.5909741573391007
10512,45,1,flower,right,mixed test,incongruent,flower_mixed,0.5318040301511824,3,10.2915811538696,1,4,0.5909741573391007
10512,53,1,heart,left,mixed test,congruent,heart_mixed,0.48489224173948625,3,10.2915811538696,1,4,0.5909741573391007
10512,56,1,flower,right,mixed test,incongruent,flower_mixed,0.5636078092049602,3,10.2915811538696,1,4,0.5909741573391007
10512,64,1,heart,left,mixed test,congruent,heart_mixed,0.6512829764612466,3,10.2915811538696,1,4,0.5909741573391007
10512,65,1,heart,left,mixed test,congruent,heart_mixed,0.21349717426240436,3,10.2915811538696,1,4,0.5909741573391007
10512,66,1,flower,left,mixed test,incongruent,flower_mixed,0.5104255437446509,3,10.2915811538696,1,4,0.5909741573391007
10512,67,1,flower,right,mixed test,incongruent,flower_mixed,0.44852459756861124,3,10.2915811538696,1,4,0.5909741573391007
10513,9,1,heart,right,hearts test,congruent,heart_only,0.4434029474485566,1,9.87542819976807,1,4,0.4046875487860168
10513,16,1,heart,right,hearts test,congruent,heart_only,0.49225423818055536,2,9.87542819976807,1,4,0.4046875487860168
10513,17,1,heart,left,hearts test,congruent,heart_only,0.7934449018753094,2,9.87542819976807,1,4,0.4046875487860168
10513,33,1,flower,right,flowers test,incongruent,other,0.4047982191204607,2,9.87542819976807,1,4,0.4046875487860168
10513,52,0,heart,left,mixed test,congruent,heart_mixed,0.49286529838899784,3,9.87542819976807,1,4,0.4046875487860168
10513,53,1,heart,left,mixed test,congruent,heart_mixed,0.611937125134402,3,9.87542819976807,1,4,0.4046875487860168
10513,57,1,flower,left,mixed test,incongruent,flower_mixed,0.7168637071772613,3,9.87542819976807,1,4,0.4046875487860168
10513,70,0,heart,right,mixed test,congruent,heart_mixed,0.005982071677547469,3,9.87542819976807,1,4,0.4046875487860168
10514,9,1,heart,right,hearts test,congruent,heart_only,0.3660310388627573,1,9.96030139923096,1,4,1.692317677381509
10514,11,1,heart,left,hearts test,congruent,heart_only,0.3220834991691132,2,9.96030139923096,1,4,1.692317677381509
10514,16,1,heart,right,hearts test,congruent,heart_only,0.4219944100593749,2,9.96030139923096,1,4,1.692317677381509
10514,18,1,heart,left,hearts test,congruent,heart_only,0.4021262068426498,2,9.96030139923096,1,4,1.692317677381509
10514,33,1,flower,right,flowers test,incongruent,other,0.5199835615507563,2,9.96030139923096,1,4,1.692317677381509
10514,37,1,flower,left,flowers test,incongruent,other,0.41871033485818504,3,9.96030139923096,1,4,1.692317677381509
10514,40,1,flower,left,flowers test,incongruent,other,0.34995239817790563,3,9.96030139923096,1,4,1.692317677381509
10514,65,1,heart,left,mixed test,congruent,heart_mixed,0.4681268692328754,3,9.96030139923096,1,4,1.692317677381509
10514,68,1,heart,left,mixed test,congruent,heart_mixed,0.5458065926612362,3,9.96030139923096,1,4,1.692317677381509
10515,9,1,heart,right,hearts test,congruent,heart_only,0.36741704047063445,1,9.70841884613037,0,4,0.7092880668446216
10515,38,1,flower,left,flowers test,incongruent,other,0.538829820175588,3,9.70841884613037,0,4,0.7092880668446216
10515,39,1,flower,right,flowers test,incongruent,other,0.38797979376714486,3,9.70841884613037,0,4,0.7092880668446216
10515,43,1,heart,right,mixed test,congruent,heart_mixed,0.49103099643781106,3,9.70841884613037,0,4,0.7092880668446216
10515,45,1,flower,right,mixed test,incongruent,flower_mixed,0.5044050559630681,3,9.70841884613037,0,4,0.7092880668446216
10515,47,1,flower,left,mixed test,incongruent,flower_mixed,0.50259181883888715,3,9.70841884613037,0,4,0.7092880668446216
10515,49,1,flower,right,mixed test,incongruent,flower_mixed,0.4855078157817008,3,9.70841884613037,0,4,0.7092880668446216
10515,50,1,flower,right,mixed test,incongruent,flower_mixed,0.49774038421733524,3,9.70841884613037,0,4,0.7092880668446216
10515,53,1,heart,left,mixed test,congruent,heart_mixed,0.5827741230785747,3,9.70841884613037,0,4,0.7092880668446216
10515,54,1,flower,left,mixed test,incongruent,flower_mixed,0.5323914016805511,3,9.70841884613037,0,4,0.7092880668446216
10515,64,1,heart,left,mixed test,congruent,heart_mixed,0.5429055172294024,3,9.70841884613037,0,4,0.7092880668446216
10516,11,1,heart,left,hearts test,congruent,heart_only,0.4285303810391606,2,10,0,4,-0.02398732692097104
10516,14,1,heart,left,hearts test,congruent,heart_only,0.39339252687389514,2,10,0,4,-0.02398732692097104
10516,38,1,flower,left,flowers test,incongruent,other,0.4101209196443585,3,10,0,4,-0.02398732692097104
10516,47,0,flower,left,mixed test,incongruent,flower_mixed,0.41078426958576436,3,10,0,4,-0.02398732692097104
10516,54,0,flower,left,mixed test,incongruent,flower_mixed,0.3750059006234559,3,10,0,4,-0.02398732692097104
10516,65,1,heart,left,mixed test,congruent,heart_mixed,0.48427628853245414,3,10,0,4,-0.02398732692097104
10516,73,1,flower,right,mixed test,incongruent,flower_mixed,0.4668737362368079,3,10,0,4,-0.02398732692097104
10517,9,1,heart,right,hearts test,congruent,heart_only,0.4259211166755468,1,10.2067079544067,0,4,-0.8104462043805318
10517,15,1,heart,right,hearts test,congruent,heart_only,0,2,10.2067079544067,0,4,-0.8104462043805318
10517,16,0,heart,right,hearts test,congruent,heart_only,0.03343477608623742,2,10.2067079544067,0,4,-0.8104462043805318
10517,29,0,flower,right,flowers test,incongruent,other,0,2,10.2067079544067,0,4,-0.8104462043805318
10517,30,1,flower,left,flowers test,incongruent,other,0.4675004990276171,2,10.2067079544067,0,4,-0.8104462043805318
10517,31,1,flower,left,flowers test,incongruent,other,0.40413088509502776,2,10.2067079544067,0,4,-0.8104462043805318
10517,32,1,flower,right,flowers test,incongruent,other,0.39271753528566167,2,10.2067079544067,0,4,-0.8104462043805318
10517,39,1,flower,right,flowers test,incongruent,other,0.42722659988967704,3,10.2067079544067,0,4,-0.8104462043805318
10517,54,1,flower,left,mixed test,incongruent,flower_mixed,0.5306282510621704,3,10.2067079544067,0,4,-0.8104462043805318
10517,56,1,flower,right,mixed test,incongruent,flower_mixed,0.6790482561804436,3,10.2067079544067,0,4,-0.8104462043805318
10517,58,1,flower,left,mixed test,incongruent,flower_mixed,0.5306282510621704,3,10.2067079544067,0,4,-0.8104462043805318
10517,59,1,heart,left,mixed test,congruent,heart_mixed,0.5515836162381584,3,10.2067079544067,0,4,-0.8104462043805318
10517,63,0,flower,right,mixed test,incongruent,flower_mixed,0.0778865386570712,3,10.2067079544067,0,4,-0.8104462043805318
10517,64,1,heart,left,mixed test,congruent,heart_mixed,0.04305948946044701,3,10.2067079544067,0,4,-0.8104462043805318
10518,10,1,heart,left,hearts test,congruent,heart_only,0.316998126785834,1,9.70841884613037,1,4,0.12207535459503116
10518,19,1,heart,left,hearts test,congruent,heart_only,0.412109650826833,2,9.70841884613037,1,4,0.12207535459503116
10518,33,1,flower,right,flowers test,incongruent,other,0.44018854416654996,2,9.70841884613037,1,4,0.12207535459503116
10518,38,1,flower,left,flowers test,incongruent,other,0.3770656335864664,3,9.70841884613037,1,4,0.12207535459503116
10518,45,1,flower,right,mixed test,incongruent,flower_mixed,0.44018854416654996,3,9.70841884613037,1,4,0.12207535459503116
10518,47,1,flower,left,mixed test,incongruent,flower_mixed,0.50259181883888715,3,9.70841884613037,1,4,0.12207535459503116
10518,48,1,heart,left,mixed test,congruent,heart_mixed,0.5104255437446509,3,9.70841884613037,1,4,0.12207535459503116
10518,68,1,heart,left,mixed test,congruent,heart_mixed,0.36464311358790924,3,9.70841884613037,1,4,0.12207535459503116
10518,72,1,flower,right,mixed test,incongruent,flower_mixed,0.5429055172294024,3,9.70841884613037,1,4,0.12207535459503116
10519,9,1,heart,right,hearts test,congruent,heart_only,0.4200252594394941,1,9.70841884613037,1,4,0.5755620009488392
10519,11,1,heart,left,hearts test,congruent,heart_only,0.47187687362741587,2,9.70841884613037,1,4,0.5755620009488392
10519,13,1,heart,right,hearts test,congruent,heart_only,0.43631757159092915,2,9.70841884613037,1,4,0.5755620009488392
10519,18,1,heart,left,hearts test,congruent,heart_only,0.5019866750987864,2,9.70841884613037,1,4,0.5755620009488392
10519,19,1,heart,left,hearts test,congruent,heart_only,0.3818552424690307,2,9.70841884613037,1,4,0.5755620009488392
10519,32,1,flower,right,flowers test,incongruent,other,0.4593217808988751,2,9.70841884613037,1,4,0.5755620009488392
10519,39,1,flower,right,flowers test,incongruent,other,0.5259112611840315,3,9.70841884613037,1,4,0.5755620009488392
10519,40,1,flower,left,flowers test,incongruent,other,0.514618422004687,3,9.70841884613037,1,4,0.5755620009488392
10519,43,0,heart,right,mixed test,congruent,heart_mixed,0.6195006403916469,3,9.70841884613037,1,4,0.5755620009488392
10519,73,1,flower,right,mixed test,incongruent,flower_mixed,0.6785410281705831,3,9.70841884613037,1,4,0.5755620009488392
10520,14,1,heart,left,hearts test,congruent,heart_only,0.3126185577418125,2,10.2067079544067,0,4,0.09735739084693022
10520,15,1,heart,right,hearts test,congruent,heart_only,0.3562748639173926,2,10.2067079544067,0,4,0.09735739084693022
10520,16,1,heart,right,hearts test,congruent,heart_only,0.4356709501652302,2,10.2067079544067,0,4,0.09735739084693022
10520,31,1,flower,left,flowers test,incongruent,other,0.37637952721306783,2,10.2067079544067,0,4,0.09735739084693022
10520,36,1,flower,right,flowers test,incongruent,other,0.44018854416654996,3,10.2067079544067,0,4,0.09735739084693022
10520,37,1,flower,left,flowers test,incongruent,other,0.33217731233833225,3,10.2067079544067,0,4,0.09735739084693022
10520,42,0,heart,right,mixed test,congruent,heart_mixed,0.46373401623214006,3,10.2067079544067,0,4,0.09735739084693022
10520,47,1,flower,left,mixed test,incongruent,flower_mixed,0.520577915208669,3,10.2067079544067,0,4,0.09735739084693022
10520,50,0,flower,right,mixed test,incongruent,flower_mixed,0.41078426958576436,3,10.2067079544067,0,4,0.09735739084693022
10520,52,0,heart,left,mixed test,congruent,heart_mixed,0.7654678421395714,3,10.2067079544067,0,4,0.09735739084693022
10520,55,0,heart,right,mixed test,congruent,heart_mixed,0.4681268692328754,3,10.2067079544067,0,4,0.09735739084693022
10520,58,1,flower,left,mixed test,incongruent,flower_mixed,0.7299611536826617,3,10.2067079544067,0,4,0.09735739084693022
10520,65,0,heart,left,mixed test,congruent,heart_mixed,0.5794184152316024,3,10.2067079544067,0,4,0.09735739084693022
10520,67,1,flower,right,mixed test,incongruent,flower_mixed,0.44980092192821614,3,10.2067079544067,0,4,0.09735739084693022
10520,70,0,heart,right,mixed test,congruent,heart_mixed,0.45679173527350503,3,10.2067079544067,0,4,0.09735739084693022
10520,73,1,flower,right,mixed test,incongruent,flower_mixed,0.7948008342864451,3,10.2067079544067,0,4,0.09735739084693022
10521,10,1,heart,left,hearts test,congruent,heart_only,0.036331929247390204,1,10.2067079544067,0,4,-0.8534604698280428
10521,12,1,heart,right,hearts test,congruent,heart_only,0.005982071677547469,2,10.2067079544067,0,4,-0.8534604698280428
10521,14,1,heart,left,hearts test,congruent,heart_only,0.3357576956833441,2,10.2067079544067,0,4,-0.8534604698280428
10521,17,0,heart,left,hearts test,congruent,heart_only,0.03922071315328133,2,10.2067079544067,0,4,-0.8534604698280428
10521,32,0,flower,right,flowers test,incongruent,other,0.30158497762077224,2,10.2067079544067,0,4,-0.8534604698280428
10521,34,1,flower,left,flowers test,incongruent,other,0.5692831933375593,2,10.2067079544067,0,4,-0.8534604698280428
10521,39,1,flower,right,flowers test,incongruent,other,0.37980536132758674,3,10.2067079544067,0,4,-0.8534604698280428
10521,41,1,flower,right,mixed test,incongruent,flower_mixed,0.4818086746954981,3,10.2067079544067,0,4,-0.8534604698280428
10521,43,1,heart,right,mixed test,congruent,heart_mixed,0.5900064216404319,3,10.2067079544067,0,4,-0.8534604698280428
10521,45,1,flower,right,mixed test,incongruent,flower_mixed,0.30968815271439554,3,10.2067079544067,0,4,-0.8534604698280428
10521,59,1,heart,left,mixed test,congruent,heart_mixed,0.004987541511038968,3,10.2067079544067,0,4,-0.8534604698280428
10521,60,1,heart,right,mixed test,congruent,heart_mixed,0.3736303845881459,3,10.2067079544067,0,4,-0.8534604698280428
10521,61,0,flower,left,mixed test,incongruent,flower_mixed,0.48673782823690076,3,10.2067079544067,0,4,-0.8534604698280428
10522,9,1,heart,right,hearts test,congruent,heart_only,0.4879663296199081,1,9.98176574707031,1,4,0.5718291820794856
10522,14,1,heart,left,hearts test,congruent,heart_only,0.3206331725914669,2,9.98176574707031,1,4,0.5718291820794856
10522,72,1,flower,right,mixed test,incongruent,flower_mixed,0,3,9.98176574707031,1,4,0.5718291820794856
10523,9,1,heart,right,hearts test,congruent,heart_only,0.5122246446796981,1,9.3744010925293,1,4,1.2109810203235214
10523,10,1,heart,left,hearts test,congruent,heart_only,0.33217731233833225,1,9.3744010925293,1,4,1.2109810203235214
10523,11,1,heart,left,hearts test,congruent,heart_only,0.36741704047063445,2,9.3744010925293,1,4,1.2109810203235214
10523,13,1,heart,right,hearts test,congruent,heart_only,0.3625576070968879,2,9.3744010925293,1,4,1.2109810203235214
10523,15,1,heart,right,hearts test,congruent,heart_only,0.28893129185221283,2,9.3744010925293,1,4,1.2109810203235214
10523,17,1,heart,left,hearts test,congruent,heart_only,0.4014570867106256,2,9.3744010925293,1,4,1.2109810203235214
10523,30,1,flower,left,flowers test,incongruent,other,0.33217731233833225,2,9.3744010925293,1,4,1.2109810203235214
10523,36,1,flower,right,flowers test,incongruent,other,0.4140944348062188,3,9.3744010925293,1,4,1.2109810203235214
10523,42,1,heart,right,mixed test,congruent,heart_mixed,0.49103099643781106,3,9.3744010925293,1,4,1.2109810203235214
10523,48,1,heart,left,mixed test,congruent,heart_mixed,0.4953058121079539,3,9.3744010925293,1,4,1.2109810203235214
10523,49,1,flower,right,mixed test,incongruent,flower_mixed,0.4555243079809013,3,9.3744010925293,1,4,1.2109810203235214
10523,51,1,heart,right,mixed test,congruent,heart_mixed,0.5370779949100564,3,9.3744010925293,1,4,1.2109810203235214
10523,56,1,flower,right,mixed test,incongruent,flower_mixed,0.4252677354043441,3,9.3744010925293,1,4,1.2109810203235214
10523,61,1,flower,left,mixed test,incongruent,flower_mixed,0.5031965966014995,3,9.3744010925293,1,4,1.2109810203235214
10523,62,1,heart,right,mixed test,congruent,heart_mixed,0.5265021031509983,3,9.3744010925293,1,4,1.2109810203235214
10523,64,1,heart,left,mixed test,congruent,heart_mixed,0.43889988419440185,3,9.3744010925293,1,4,1.2109810203235214
10523,72,1,flower,right,mixed test,incongruent,flower_mixed,0.6381628722271858,3,9.3744010925293,1,4,1.2109810203235214
10524,14,1,heart,left,hearts test,congruent,heart_only,0.33932530560361934,2,9.87542819976807,0,4,0.720460181283987
10524,44,0,heart,left,mixed test,congruent,heart_mixed,0.5074198306311578,3,9.87542819976807,0,4,0.720460181283987
10524,45,1,flower,right,mixed test,incongruent,flower_mixed,0.4408322519454557,3,9.87542819976807,0,4,0.720460181283987
10524,49,1,flower,right,mixed test,incongruent,flower_mixed,0.6151856390902335,3,9.87542819976807,0,4,0.720460181283987
10524,54,1,flower,left,mixed test,incongruent,flower_mixed,0.4989554511955033,3,9.87542819976807,0,4,0.720460181283987
10524,59,0,heart,left,mixed test,congruent,heart_mixed,0.51402051466251,3,9.87542819976807,0,4,0.720460181283987
10524,72,1,flower,right,mixed test,incongruent,flower_mixed,0.5504308783583501,3,9.87542819976807,0,4,0.720460181283987
10525,17,1,heart,left,hearts test,congruent,heart_only,0.3285840637722067,2,10.0424365997314,1,4,1.5632487285772476
10525,35,1,flower,right,flowers test,incongruent,other,0.43631757159092915,3,10.0424365997314,1,4,1.5632487285772476
10525,40,1,flower,left,flowers test,incongruent,other,0.5469646703818639,3,10.0424365997314,1,4,1.5632487285772476
10525,45,1,flower,right,mixed test,incongruent,flower_mixed,0.4885800148186709,3,10.0424365997314,1,4,1.5632487285772476
10525,52,1,heart,left,mixed test,congruent,heart_mixed,0.47374661552456987,3,10.0424365997314,1,4,1.5632487285772476
10525,59,1,heart,left,mixed test,congruent,heart_mixed,0.4861230111256188,3,10.0424365997314,1,4,1.5632487285772476
10526,12,1,heart,right,hearts test,congruent,heart_only,0.3562748639173926,2,10.3764543533325,0,4,0.9803483308847236
10526,15,1,heart,right,hearts test,congruent,heart_only,0.3974329364109001,2,10.3764543533325,0,4,0.9803483308847236
10526,16,1,heart,right,hearts test,congruent,heart_only,0.33289441527332897,2,10.3764543533325,0,4,0.9803483308847236
10526,29,1,flower,right,flowers test,incongruent,other,0.43243155633797864,2,10.3764543533325,0,4,0.9803483308847236
10526,32,1,flower,right,flowers test,incongruent,other,0.42983246455645874,2,10.3764543533325,0,4,0.9803483308847236
10526,35,1,flower,right,flowers test,incongruent,other,0.40011750178156913,3,10.3764543533325,0,4,0.9803483308847236
10526,49,1,flower,right,mixed test,incongruent,flower_mixed,0.47374661552456987,3,10.3764543533325,0,4,0.9803483308847236
10526,55,1,heart,right,mixed test,congruent,heart_mixed,0.5399960010657705,3,10.3764543533325,0,4,0.9803483308847236
10526,57,1,flower,left,mixed test,incongruent,flower_mixed,0.5382462193419829,3,10.3764543533325,0,4,0.9803483308847236
10526,71,1,flower,left,mixed test,incongruent,flower_mixed,0.5187937934151676,3,10.3764543533325,0,4,0.9803483308847236
10527,10,1,heart,left,hearts test,congruent,heart_only,0.35276731910771536,1,10.1273097991943,0,4,1.7524790615900463
10527,17,1,heart,left,hearts test,congruent,heart_only,0.3364722366212129,2,10.1273097991943,0,4,1.7524790615900463
10527,32,1,flower,right,flowers test,incongruent,other,0.36464311358790924,2,10.1273097991943,0,4,1.7524790615900463
10527,34,1,flower,left,flowers test,incongruent,other,0.37912113276856246,2,10.1273097991943,0,4,1.7524790615900463
10527,35,1,flower,right,flowers test,incongruent,other,0.42722659988967704,3,10.1273097991943,0,4,1.7524790615900463
10527,36,1,flower,right,flowers test,incongruent,other,0.40346310543749125,3,10.1273097991943,0,4,1.7524790615900463
10527,38,1,flower,left,flowers test,incongruent,other,0.38662202030668447,3,10.1273097991943,0,4,1.7524790615900463
10527,41,1,flower,right,mixed test,incongruent,flower_mixed,0.5092243423990169,3,10.1273097991943,0,4,1.7524790615900463
10527,47,1,flower,left,mixed test,incongruent,flower_mixed,0.5122246446796981,3,10.1273097991943,0,4,1.7524790615900463
10527,48,1,heart,left,mixed test,congruent,heart_mixed,0.4891933236388768,3,10.1273097991943,0,4,1.7524790615900463
10527,50,1,flower,right,mixed test,incongruent,flower_mixed,0.5282725373697112,3,10.1273097991943,0,4,1.7524790615900463
10527,60,1,heart,right,mixed test,congruent,heart_mixed,0.4855078157817008,3,10.1273097991943,0,4,1.7524790615900463
10527,71,1,flower,left,mixed test,incongruent,flower_mixed,0.5463857991645414,3,10.1273097991943,0,4,1.7524790615900463
10528,9,1,heart,right,hearts test,congruent,heart_only,0.4014570867106256,1,10.2915811538696,1,4,-0.245147784531808
10528,15,1,heart,right,hearts test,congruent,heart_only,0.3940670631557951,2,10.2915811538696,1,4,-0.245147784531808
10528,18,0,heart,left,hearts test,congruent,heart_only,0.30527638085273207,2,10.2915811538696,1,4,-0.245147784531808
10528,31,1,flower,left,flowers test,incongruent,other,0.43113285485674224,2,10.2915811538696,1,4,-0.245147784531808
10528,33,0,flower,right,flowers test,incongruent,other,0.34358970439007686,2,10.2915811538696,1,4,-0.245147784531808
10528,38,1,flower,left,flowers test,incongruent,other,0.3845818971917402,3,10.2915811538696,1,4,-0.245147784531808
10528,39,1,flower,right,flowers test,incongruent,other,0.5492768101402434,3,10.2915811538696,1,4,-0.245147784531808
10528,40,1,flower,left,flowers test,incongruent,other,0.47685510419483734,3,10.2915811538696,1,4,-0.245147784531808
10528,63,0,flower,right,mixed test,incongruent,flower_mixed,0.462475362824944,3,10.2915811538696,1,4,-0.245147784531808
10528,71,0,flower,left,mixed test,incongruent,flower_mixed,0.458689869345462,3,10.2915811538696,1,4,-0.245147784531808
10529,9,1,heart,right,hearts test,congruent,heart_only,0.501381164937991,1,9.62354564666748,0,4,-0.06247015731809949
10529,11,1,heart,left,hearts test,congruent,heart_only,0.43048287108345223,2,9.62354564666748,0,4,-0.06247015731809949
10529,13,1,heart,right,hearts test,congruent,heart_only,0.39810475370187187,2,9.62354564666748,0,4,-0.06247015731809949
10529,19,1,heart,left,hearts test,congruent,heart_only,0.4027948795522855,2,9.62354564666748,0,4,-0.06247015731809949
10529,32,1,flower,right,flowers test,incongruent,other,0.3667242797917339,2,9.62354564666748,0,4,-0.06247015731809949
10529,33,1,flower,right,flowers test,incongruent,other,0.4799539600989037,2,9.62354564666748,0,4,-0.06247015731809949
10529,36,1,flower,right,flowers test,incongruent,other,0.6195006403916469,3,9.62354564666748,0,4,-0.06247015731809949
10529,44,1,heart,left,mixed test,congruent,heart_mixed,0.5170064828410719,3,9.62354564666748,0,4,-0.06247015731809949
10529,51,0,heart,right,mixed test,congruent,heart_mixed,0.46937843385181716,3,9.62354564666748,0,4,-0.06247015731809949
10529,56,0,flower,right,mixed test,incongruent,flower_mixed,0.49652383905513103,3,9.62354564666748,0,4,-0.06247015731809949
10529,58,1,flower,left,mixed test,incongruent,flower_mixed,0.5458065926612362,3,9.62354564666748,0,4,-0.06247015731809949
10529,68,1,heart,left,mixed test,congruent,heart_mixed,0.6097655716208942,3,9.62354564666748,0,4,-0.06247015731809949
10529,71,0,flower,left,mixed test,incongruent,flower_mixed,0.43178241642553783,3,9.62354564666748,0,4,-0.06247015731809949
10530,12,1,heart,right,hearts test,congruent,heart_only,0.34145977813225203,2,9.62354564666748,1,4,1.2124143562128396
10530,16,1,heart,right,hearts test,congruent,heart_only,0.32135859881116474,2,9.62354564666748,1,4,1.2124143562128396
10530,32,1,flower,right,flowers test,incongruent,other,0.46373401623214006,2,9.62354564666748,1,4,1.2124143562128396
10530,40,1,flower,left,flowers test,incongruent,other,0.44276089285186127,3,9.62354564666748,1,4,1.2124143562128396
10530,52,1,heart,left,mixed test,congruent,heart_mixed,0.5458065926612362,3,9.62354564666748,1,4,1.2124143562128396
10530,55,0,heart,right,mixed test,congruent,heart_mixed,0.45234869400701483,3,9.62354564666748,1,4,1.2124143562128396
11301,14,1,heart,left,hearts test,congruent,heart_only,0.4343764516025845,2,8.79397678375244,1,3,0.25735746239098733
11301,34,1,flower,left,flowers test,incongruent,other,0.44468582126144574,2,8.79397678375244,1,3,0.25735746239098733
11301,36,1,flower,right,flowers test,incongruent,other,0.40413088509502776,3,8.79397678375244,1,3,0.25735746239098733
11301,39,1,flower,right,flowers test,incongruent,other,0.43113285485674224,3,8.79397678375244,1,3,0.25735746239098733
11301,48,1,heart,left,mixed test,congruent,heart_mixed,0.5300398426897949,3,8.79397678375244,1,3,0.25735746239098733
11301,49,0,flower,right,mixed test,incongruent,flower_mixed,0.3450071390710503,3,8.79397678375244,1,3,0.25735746239098733
11301,50,1,flower,right,mixed test,incongruent,flower_mixed,0.3736303845881459,3,8.79397678375244,1,3,0.25735746239098733
11301,56,1,flower,right,mixed test,incongruent,flower_mixed,0.5300398426897949,3,8.79397678375244,1,3,0.25735746239098733
11301,71,1,flower,left,mixed test,incongruent,flower_mixed,0.4434029474485566,3,8.79397678375244,1,3,0.25735746239098733
11302,9,1,heart,right,hearts test,congruent,heart_only,0.412109650826833,1,9.12799453735352,1,3,-0.38597531442890454
11302,12,1,heart,right,hearts test,congruent,heart_only,0.29192306670903545,2,9.12799453735352,1,3,-0.38597531442890454
11302,18,1,heart,left,hearts test,congruent,heart_only,0.41673470036639515,2,9.12799453735352,1,3,-0.38597531442890454
11302,19,1,heart,left,hearts test,congruent,heart_only,0.39608794629556743,2,9.12799453735352,1,3,-0.38597531442890454
11302,33,1,flower,right,flowers test,incongruent,other,0.5306282510621704,2,9.12799453735352,1,3,-0.38597531442890454
11302,37,1,flower,left,flowers test,incongruent,other,0.555033878430311,3,9.12799453735352,1,3,-0.38597531442890454
11302,49,0,flower,right,mixed test,incongruent,flower_mixed,0.4916428043492167,3,9.12799453735352,1,3,-0.38597531442890454
11302,53,0,heart,left,mixed test,congruent,heart_mixed,0.5692831933375593,3,9.12799453735352,1,3,-0.38597531442890454
11302,56,1,flower,right,mixed test,incongruent,flower_mixed,0.555033878430311,3,9.12799453735352,1,3,-0.38597531442890454
11302,58,0,flower,left,mixed test,incongruent,flower_mixed,0.4706284340145776,3,9.12799453735352,1,3,-0.38597531442890454
11302,59,1,heart,left,mixed test,congruent,heart_mixed,0.5567545556543906,3,9.12799453735352,1,3,-0.38597531442890454
11302,61,0,flower,left,mixed test,incongruent,flower_mixed,0.4408322519454557,3,9.12799453735352,1,3,-0.38597531442890454
11302,67,1,flower,right,mixed test,incongruent,flower_mixed,0.5538851132264376,3,9.12799453735352,1,3,-0.38597531442890454
11302,68,0,heart,left,mixed test,congruent,heart_mixed,0.5850050219402422,3,9.12799453735352,1,3,-0.38597531442890454
11302,69,0,heart,right,mixed test,congruent,heart_mixed,0.5199835615507563,3,9.12799453735352,1,3,-0.38597531442890454
11302,70,0,heart,right,mixed test,congruent,heart_mixed,0.46937843385181716,3,9.12799453735352,1,3,-0.38597531442890454
11302,72,1,flower,right,mixed test,incongruent,flower_mixed,0.22793206804600694,3,9.12799453735352,1,3,-0.38597531442890454
11303,10,1,heart,left,hearts test,congruent,heart_only,0.33718626735486995,1,9.12799453735352,0,3,0.15393579403593455
11303,13,1,heart,right,hearts test,congruent,heart_only,0.42068207391302487,2,9.12799453735352,0,3,0.15393579403593455
11303,14,1,heart,left,hearts test,congruent,heart_only,0.4081282255276481,2,9.12799453735352,0,3,0.15393579403593455
11303,19,1,heart,left,hearts test,congruent,heart_only,0.5312163134137248,2,9.12799453735352,0,3,0.15393579403593455
11303,20,1,heart,right,hearts test,congruent,heart_only,0.4134332777573413,2,9.12799453735352,0,3,0.15393579403593455
11303,37,1,flower,left,flowers test,incongruent,other,0.3492474281099357,3,9.12799453735352,0,3,0.15393579403593455
11303,42,1,heart,right,mixed test,congruent,heart_mixed,0.43954442176102704,3,9.12799453735352,0,3,0.15393579403593455
11303,43,1,heart,right,mixed test,congruent,heart_mixed,0.7419373447293773,3,9.12799453735352,0,3,0.15393579403593455
11303,44,1,heart,left,mixed test,congruent,heart_mixed,0.7060634058264915,3,9.12799453735352,0,3,0.15393579403593455
11303,52,1,heart,left,mixed test,congruent,heart_mixed,0.5905605917848443,3,9.12799453735352,0,3,0.15393579403593455
11303,55,1,heart,right,mixed test,congruent,heart_mixed,0.5584722772333437,3,9.12799453735352,0,3,0.15393579403593455
11303,56,1,flower,right,mixed test,incongruent,flower_mixed,0.6307397204313283,3,9.12799453735352,0,3,0.15393579403593455
11303,60,1,heart,right,mixed test,congruent,heart_mixed,0.3967606674780181,3,9.12799453735352,0,3,0.15393579403593455
11303,64,1,heart,left,mixed test,congruent,heart_mixed,0.5253200699164432,3,9.12799453735352,0,3,0.15393579403593455
11304,10,1,heart,left,hearts test,congruent,heart_only,0.5080216964332565,1,8.79397678375244,1,3,-0.11341545370211084
11304,13,1,heart,right,hearts test,congruent,heart_only,0.3708736633385454,2,8.79397678375244,1,3,-0.11341545370211084
11304,17,1,heart,left,hearts test,congruent,heart_only,0.40413088509502776,2,8.79397678375244,1,3,-0.11341545370211084
11304,40,1,flower,left,flowers test,incongruent,other,0.50259181883888715,3,8.79397678375244,1,3,-0.11341545370211084
11304,45,0,flower,right,mixed test,incongruent,flower_mixed,0.5019866750987864,3,8.79397678375244,1,3,-0.11341545370211084
11304,46,1,flower,left,mixed test,incongruent,flower_mixed,0.47561286801024616,3,8.79397678375244,1,3,-0.11341545370211084
11304,49,1,flower,right,mixed test,incongruent,flower_mixed,0.6861225656229808,3,8.79397678375244,1,3,-0.11341545370211084
11304,52,1,heart,left,mixed test,congruent,heart_mixed,0.681074599325676,3,8.79397678375244,1,3,-0.11341545370211084
11304,53,1,heart,left,mixed test,congruent,heart_mixed,0.5463857991645414,3,8.79397678375244,1,3,-0.11341545370211084
11304,55,0,heart,right,mixed test,congruent,heart_mixed,0.5187937934151676,3,8.79397678375244,1,3,-0.11341545370211084
11304,56,1,flower,right,mixed test,incongruent,flower_mixed,0.6800619410112898,3,8.79397678375244,1,3,-0.11341545370211084
11304,62,1,heart,right,mixed test,congruent,heart_mixed,0.5922212619699848,3,8.79397678375244,1,3,-0.11341545370211084
11305,10,1,heart,left,hearts test,congruent,heart_only,0.5229518035638313,1,8.96098518371582,1,3,0.45244741550005146
11305,12,1,heart,right,hearts test,congruent,heart_only,0.48119081863629987,2,8.96098518371582,1,3,0.45244741550005146
11305,16,1,heart,right,hearts test,congruent,heart_only,0.46937843385181716,2,8.96098518371582,1,3,0.45244741550005146
11305,58,1,flower,left,mixed test,incongruent,flower_mixed,0.7682546530467506,3,8.96098518371582,1,3,0.45244741550005146
11305,61,1,flower,left,mixed test,incongruent,flower_mixed,0.7202758479481978,3,8.96098518371582,1,3,0.45244741550005146
11305,66,1,flower,left,mixed test,incongruent,flower_mixed,0.8087055211942177,3,8.96098518371582,1,3,0.45244741550005146
11305,72,1,flower,right,mixed test,incongruent,flower_mixed,0.5241366378256631,3,8.96098518371582,1,3,0.45244741550005146
11305,73,1,flower,right,mixed test,incongruent,flower_mixed,0.49774038421733524,3,8.96098518371582,1,3,0.45244741550005146
11306,9,1,heart,right,hearts test,congruent,heart_only,0.35065687161316933,1,9,1,3,1.1145832320337905
11306,11,1,heart,left,hearts test,congruent,heart_only,0.3520643313810491,2,9,1,3,1.1145832320337905
11306,39,1,flower,right,flowers test,incongruent,other,0.3967606674780181,3,9,1,3,1.1145832320337905
11306,41,1,flower,right,mixed test,incongruent,flower_mixed,0.5579000311519194,3,9,1,3,1.1145832320337905
11306,42,1,heart,right,mixed test,congruent,heart_mixed,0.5134222496132567,3,9,1,3,1.1145832320337905
11306,65,1,heart,left,mixed test,congruent,heart_mixed,0.5370779949100564,3,9,1,3,1.1145832320337905
11306,68,0,heart,left,mixed test,congruent,heart_mixed,0.51402051466251,3,9,1,3,1.1145832320337905
11307,11,1,heart,left,hearts test,congruent,heart_only,0.39339252687389514,2,9.12799453735352,0,3,0.6419957337034696
11307,19,1,heart,left,hearts test,congruent,heart_only,0.5170064828410719,2,9.12799453735352,0,3,0.6419957337034696
11307,36,1,flower,right,flowers test,incongruent,other,0.4193680132771557,3,9.12799453735352,0,3,0.6419957337034696
11307,40,1,flower,left,flowers test,incongruent,other,0.4953058121079539,3,9.12799453735352,0,3,0.6419957337034696
11307,45,1,flower,right,mixed test,incongruent,flower_mixed,0.3987761199573678,3,9.12799453735352,0,3,0.6419957337034696
11307,57,1,flower,left,mixed test,incongruent,flower_mixed,0.8028980445190645,3,9.12799453735352,0,3,0.6419957337034696
11307,69,1,heart,right,mixed test,congruent,heart_mixed,0.5827741230785747,3,9.12799453735352,0,3,0.6419957337034696
11308,12,1,heart,right,hearts test,congruent,heart_only,0.43889988419440185,2,8.87611198425293,0,3,1.0951821338989285
11308,14,1,heart,left,hearts test,congruent,heart_only,0.42787870294506447,2,8.87611198425293,0,3,1.0951821338989285
11308,18,1,heart,left,hearts test,congruent,heart_only,0.5223588595796637,2,8.87611198425293,0,3,1.0951821338989285
11308,19,1,heart,left,hearts test,congruent,heart_only,0.4599532933922342,2,8.87611198425293,0,3,1.0951821338989285
11308,29,1,flower,right,flowers test,incongruent,other,0.5247285289349821,2,8.87611198425293,0,3,1.0951821338989285
11308,30,1,flower,left,flowers test,incongruent,other,0.5007752879124892,2,8.87611198425293,0,3,1.0951821338989285
11308,33,1,flower,right,flowers test,incongruent,other,0.6486726904581158,2,8.87611198425293,0,3,1.0951821338989285
11308,36,1,flower,right,flowers test,incongruent,other,0.5170064828410719,3,8.87611198425293,0,3,1.0951821338989285
11308,37,1,flower,left,flowers test,incongruent,other,0.5429055172294024,3,8.87611198425293,0,3,1.0951821338989285
11308,38,1,flower,left,flowers test,incongruent,other,0.5927742064131581,3,8.87611198425293,0,3,1.0951821338989285
11308,42,1,heart,right,mixed test,congruent,heart_mixed,0.5211719158201351,3,8.87611198425293,0,3,1.0951821338989285
11308,47,1,flower,left,mixed test,incongruent,flower_mixed,0.5253200699164432,3,8.87611198425293,0,3,1.0951821338989285
11308,58,1,flower,left,mixed test,incongruent,flower_mixed,0.5504308783583501,3,8.87611198425293,0,3,1.0951821338989285
11308,59,0,heart,left,mixed test,congruent,heart_mixed,0.5038010088290262,3,8.87611198425293,0,3,1.0951821338989285
11308,61,1,flower,left,mixed test,incongruent,flower_mixed,0.5300398426897949,3,8.87611198425293,0,3,1.0951821338989285
11308,70,1,heart,right,mixed test,congruent,heart_mixed,0.4369637751675354,3,8.87611198425293,0,3,1.0951821338989285
11308,71,1,flower,left,mixed test,incongruent,flower_mixed,0.5364933705145685,3,8.87611198425293,0,3,1.0951821338989285
11309,20,1,heart,right,hearts test,congruent,heart_only,0.4574248470388755,2,8.45722103118896,1,3,0.19262411331177737
11309,38,1,flower,left,flowers test,incongruent,other,0.3038014543316642,3,8.45722103118896,1,3,0.19262411331177737
11309,39,1,flower,right,flowers test,incongruent,other,0.31554040058017735,3,8.45722103118896,1,3,0.19262411331177737
11309,42,1,heart,right,mixed test,congruent,heart_mixed,0.41078426958576436,3,8.45722103118896,1,3,0.19262411331177737
11309,48,1,heart,left,mixed test,congruent,heart_mixed,0.5265021031509983,3,8.45722103118896,1,3,0.19262411331177737
11309,65,1,heart,left,mixed test,congruent,heart_mixed,0.43178241642553783,3,8.45722103118896,1,3,0.19262411331177737
11309,71,1,flower,left,mixed test,incongruent,flower_mixed,0.51402051466251,3,8.45722103118896,1,3,0.19262411331177737
11309,72,1,flower,right,mixed test,incongruent,flower_mixed,0.6936470556015963,3,8.45722103118896,1,3,0.19262411331177737
11310,29,1,flower,right,flowers test,incongruent,other,0.4836599556932211,2,8.45722103118896,1,3,0.02389216255316197
11310,71,1,flower,left,mixed test,incongruent,flower_mixed,0.5031965966014995,3,8.45722103118896,1,3,0.02389216255316197
11311,11,1,heart,left,hearts test,congruent,heart_only,0.3457151037023904,2,8.37508583068848,0,3,1.1515691029143769
11311,13,1,heart,right,hearts test,congruent,heart_only,0.3611648492115845,2,8.37508583068848,0,3,1.1515691029143769
11311,17,1,heart,left,hearts test,congruent,heart_only,0.3852624007906449,2,8.37508583068848,0,3,1.1515691029143769
11311,29,1,flower,right,flowers test,incongruent,other,0.48489224173948625,2,8.37508583068848,0,3,1.1515691029143769
11311,32,1,flower,right,flowers test,incongruent,other,0.5116253039365551,2,8.37508583068848,0,3,1.1515691029143769
11311,33,1,flower,right,flowers test,incongruent,other,0.4074631107708375,2,8.37508583068848,0,3,1.1515691029143769
11311,39,1,flower,right,flowers test,incongruent,other,0.445326641533295,3,8.37508583068848,0,3,1.1515691029143769
11311,41,1,flower,right,mixed test,incongruent,flower_mixed,0.40879289820083897,3,8.37508583068848,0,3,1.1515691029143769
11311,42,1,heart,right,mixed test,congruent,heart_mixed,0.41475515501525706,3,8.37508583068848,0,3,1.1515691029143769
11311,43,1,heart,right,mixed test,congruent,heart_mixed,0.4555243079809013,3,8.37508583068848,0,3,1.1515691029143769
11311,47,1,flower,left,mixed test,incongruent,flower_mixed,0.5199835615507563,3,8.37508583068848,0,3,1.1515691029143769
11311,61,1,flower,left,mixed test,incongruent,flower_mixed,0.6851150088626811,3,8.37508583068848,0,3,1.1515691029143769
11312,11,1,heart,left,hearts test,congruent,heart_only,0.44596705141749426,2,8.37508583068848,1,3,-0.3944288919266659
11312,12,1,heart,right,hearts test,congruent,heart_only,0.4140944348062188,2,8.37508583068848,1,3,-0.3944288919266659
11312,15,1,heart,right,hearts test,congruent,heart_only,0.3873011374804931,2,8.37508583068848,1,3,-0.3944288919266659
11312,29,1,flower,right,flowers test,incongruent,other,0.45805755822733496,2,8.37508583068848,1,3,-0.3944288919266659
11312,31,1,flower,left,flowers test,incongruent,other,0.47374661552456987,2,8.37508583068848,1,3,-0.3944288919266659
11312,32,1,flower,right,flowers test,incongruent,other,0.45298462407614076,2,8.37508583068848,1,3,-0.3944288919266659
11312,34,1,flower,left,flowers test,incongruent,other,0.49103099643781106,2,8.37508583068848,1,3,-0.3944288919266659
11312,35,1,flower,right,flowers test,incongruent,other,0.4265740713183996,3,8.37508583068848,1,3,-0.3944288919266659
11312,38,1,flower,left,flowers test,incongruent,other,0.3818552424690307,3,8.37508583068848,1,3,-0.3944288919266659
11312,39,1,flower,right,flowers test,incongruent,other,0.41805222361363586,3,8.37508583068848,1,3,-0.3944288919266659
11312,40,1,flower,left,flowers test,incongruent,other,0.554459660786052,3,8.37508583068848,1,3,-0.3944288919266659
11312,42,1,heart,right,mixed test,congruent,heart_mixed,0.5276827408324135,3,8.37508583068848,1,3,-0.3944288919266659
11312,44,1,heart,left,mixed test,congruent,heart_mixed,0.4561582224236824,3,8.37508583068848,1,3,-0.3944288919266659
11312,49,1,flower,right,mixed test,incongruent,flower_mixed,0.5259112611840315,3,8.37508583068848,1,3,-0.3944288919266659
11312,51,1,heart,right,mixed test,congruent,heart_mixed,0.4712528486461674,3,8.37508583068848,1,3,-0.3944288919266659
11312,61,1,flower,left,mixed test,incongruent,flower_mixed,0.39541477225466287,3,8.37508583068848,1,3,-0.3944288919266659
11312,64,1,heart,left,mixed test,congruent,heart_mixed,0.4337285733810239,3,8.37508583068848,1,3,-0.3944288919266659
11312,68,0,heart,left,mixed test,congruent,heart_mixed,0.4971322966339882,3,8.37508583068848,1,3,-0.3944288919266659
11312,72,0,flower,right,mixed test,incongruent,flower_mixed,0.09531017980432493,3,8.37508583068848,1,3,-0.3944288919266659
11313,14,1,heart,left,hearts test,congruent,heart_only,0.37912113276856246,2,9.20465469360352,1,3,0.7399615930000201
11313,15,1,heart,right,hearts test,congruent,heart_only,0.3400373027857091,2,9.20465469360352,1,3,0.7399615930000201
11313,19,1,heart,left,hearts test,congruent,heart_only,0.41607528722017995,2,9.20465469360352,1,3,0.7399615930000201
11313,30,1,flower,left,flowers test,incongruent,other,0.5521594872589679,2,9.20465469360352,1,3,0.7399615930000201
11313,31,1,flower,left,flowers test,incongruent,other,0.5306282510621704,2,9.20465469360352,1,3,0.7399615930000201
11313,35,1,flower,right,flowers test,incongruent,other,0.5347374438123035,3,9.20465469360352,1,3,0.7399615930000201
11313,39,1,flower,right,flowers test,incongruent,other,0.4555243079809013,3,9.20465469360352,1,3,0.7399615930000201
11313,41,1,flower,right,mixed test,incongruent,flower_mixed,0.6606239888543852,3,9.20465469360352,1,3,0.7399615930000201
11313,42,1,heart,right,mixed test,congruent,heart_mixed,0.6302073807860712,3,9.20465469360352,1,3,0.7399615930000201
11313,45,1,flower,right,mixed test,incongruent,flower_mixed,0.5335651107354802,3,9.20465469360352,1,3,0.7399615930000201
11313,53,1,heart,left,mixed test,congruent,heart_mixed,0.49956243148728,3,9.20465469360352,1,3,0.7399615930000201
11313,57,1,flower,left,mixed test,incongruent,flower_mixed,0.5335651107354802,3,9.20465469360352,1,3,0.7399615930000201
11313,65,1,heart,left,mixed test,congruent,heart_mixed,0.49956243148728,3,9.20465469360352,1,3,0.7399615930000201
11313,67,0,flower,right,mixed test,incongruent,flower_mixed,0.6678293725756554,3,9.20465469360352,1,3,0.7399615930000201
11313,70,1,heart,right,mixed test,congruent,heart_mixed,0.6693666518945418,3,9.20465469360352,1,3,0.7399615930000201
11314,12,1,heart,right,hearts test,congruent,heart_only,0.5294510878891555,2,8.96098518371582,0,3,1.2340023059823917
11314,14,1,heart,left,hearts test,congruent,heart_only,0.3681093215643955,2,8.96098518371582,0,3,1.2340023059823917
11314,20,1,heart,right,hearts test,congruent,heart_only,0.3639484279052308,2,8.96098518371582,0,3,1.2340023059823917
11314,30,1,flower,left,flowers test,incongruent,other,0.406797553341943,2,8.96098518371582,0,3,1.2340023059823917
11314,31,1,flower,left,flowers test,incongruent,other,0.42918163472548043,2,8.96098518371582,0,3,1.2340023059823917
11314,41,1,flower,right,mixed test,incongruent,flower_mixed,0.49286529838899784,3,8.96098518371582,0,3,1.2340023059823917
11314,43,1,heart,right,mixed test,congruent,heart_mixed,0.46561903092791146,3,8.96098518371582,0,3,1.2340023059823917
11314,47,0,flower,left,mixed test,incongruent,flower_mixed,0.412109650826833,3,8.96098518371582,0,3,1.2340023059823917
11314,48,1,heart,left,mixed test,congruent,heart_mixed,0.50259181883888715,3,8.96098518371582,0,3,1.2340023059823917
11314,50,1,flower,right,mixed test,incongruent,flower_mixed,0.5475432067011535,3,8.96098518371582,0,3,1.2340023059823917
11314,51,1,heart,right,mixed test,congruent,heart_mixed,0.5607579925141997,3,8.96098518371582,0,3,1.2340023059823917
11314,57,1,flower,left,mixed test,incongruent,flower_mixed,0.7100042976263681,3,8.96098518371582,0,3,1.2340023059823917
11314,68,1,heart,left,mixed test,congruent,heart_mixed,0.5199835615507563,3,8.96098518371582,0,3,1.2340023059823917
11314,70,1,heart,right,mixed test,congruent,heart_mixed,0.5294510878891555,3,8.96098518371582,0,3,1.2340023059823917
11314,72,1,flower,right,mixed test,incongruent,flower_mixed,0.6518042170255629,3,8.96098518371582,0,3,1.2340023059823917
11315,10,1,heart,left,hearts test,congruent,heart_only,0.3987761199573678,1,8.87611198425293,1,3,1.5727462329468849
11315,12,1,heart,right,hearts test,congruent,heart_only,0.4259211166755468,2,8.87611198425293,1,3,1.5727462329468849
11315,17,1,heart,left,hearts test,congruent,heart_only,0.5353230953663781,2,8.87611198425293,1,3,1.5727462329468849
11315,18,1,heart,left,hearts test,congruent,heart_only,0.5458065926612362,2,8.87611198425293,1,3,1.5727462329468849
11315,20,1,heart,right,hearts test,congruent,heart_only,0.41541543896133254,2,8.87611198425293,1,3,1.5727462329468849
11315,33,1,flower,right,flowers test,incongruent,other,0.4989554511955033,2,8.87611198425293,1,3,1.5727462329468849
11315,35,1,flower,right,flowers test,incongruent,other,0.4350239103497087,3,8.87611198425293,1,3,1.5727462329468849
11315,38,1,flower,left,flowers test,incongruent,other,0.4472466421231194,3,8.87611198425293,1,3,1.5727462329468849
11315,43,1,heart,right,mixed test,congruent,heart_mixed,0.5966362801791014,3,8.87611198425293,1,3,1.5727462329468849
11315,49,1,flower,right,mixed test,incongruent,flower_mixed,0.6048622656923737,3,8.87611198425293,1,3,1.5727462329468849
11315,55,1,heart,right,mixed test,congruent,heart_mixed,0.6264730472919525,3,8.87611198425293,1,3,1.5727462329468849
11315,57,1,flower,left,mixed test,incongruent,flower_mixed,0.5738004229273791,3,8.87611198425293,1,3,1.5727462329468849
11315,60,0,heart,right,mixed test,congruent,heart_mixed,0.5922212619699848,3,8.87611198425293,1,3,1.5727462329468849
11315,62,1,heart,right,mixed test,congruent,heart_mixed,0.5211719158201351,3,8.87611198425293,1,3,1.5727462329468849
11315,69,1,heart,right,mixed test,congruent,heart_mixed,0.5938791789012763,3,8.87611198425293,1,3,1.5727462329468849
11315,71,0,flower,left,mixed test,incongruent,flower_mixed,0.3688011237365729,3,8.87611198425293,1,3,1.5727462329468849
11316,12,1,heart,right,hearts test,congruent,heart_only,0.33932530560361934,2,8.45722103118896,0,3,0.7476541364943832
11316,13,1,heart,right,hearts test,congruent,heart_only,0.3660310388627573,2,8.45722103118896,0,3,0.7476541364943832
11316,15,1,heart,right,hearts test,congruent,heart_only,0.29117596170603677,2,8.45722103118896,0,3,0.7476541364943832
11316,19,1,heart,left,hearts test,congruent,heart_only,0.4219944100593749,2,8.45722103118896,0,3,0.7476541364943832
11316,33,1,flower,right,flowers test,incongruent,other,0.47000362924573563,2,8.45722103118896,0,3,0.7476541364943832
11316,44,1,heart,left,mixed test,congruent,heart_mixed,0.4774756440844366,3,8.45722103118896,0,3,0.7476541364943832
11316,45,1,flower,right,mixed test,incongruent,flower_mixed,0.5721088521828892,3,8.45722103118896,0,3,0.7476541364943832
11316,52,1,heart,left,mixed test,congruent,heart_mixed,0.6926470555182631,3,8.45722103118896,0,3,0.7476541364943832
11316,53,1,heart,left,mixed test,congruent,heart_mixed,0.5062150112083075,3,8.45722103118896,0,3,0.7476541364943832
11316,60,0,heart,right,mixed test,congruent,heart_mixed,0.5458065926612362,3,8.45722103118896,0,3,0.7476541364943832
11316,63,1,flower,right,mixed test,incongruent,flower_mixed,0.5933268452777344,3,8.45722103118896,0,3,0.7476541364943832
11316,65,1,heart,left,mixed test,congruent,heart_mixed,0.4101209196443585,3,8.45722103118896,0,3,0.7476541364943832
11316,71,1,flower,left,mixed test,incongruent,flower_mixed,0.7447904137117837,3,8.45722103118896,0,3,0.7476541364943832
11316,72,1,flower,right,mixed test,incongruent,flower_mixed,0.6146449524049877,3,8.45722103118896,0,3,0.7476541364943832
11317,9,1,heart,right,hearts test,congruent,heart_only,0.48427628853245414,1,8.96098518371582,1,3,0.6705018242224867
11317,15,1,heart,right,hearts test,congruent,heart_only,0.33718626735486995,2,8.96098518371582,1,3,0.6705018242224867
11317,19,1,heart,left,hearts test,congruent,heart_only,0.47436908675537554,2,8.96098518371582,1,3,0.6705018242224867
11317,35,1,flower,right,flowers test,incongruent,other,0.34429867287067695,3,8.96098518371582,1,3,0.6705018242224867
11317,36,1,flower,right,flowers test,incongruent,other,0.5241366378256631,3,8.96098518371582,1,3,0.6705018242224867
11317,43,1,heart,right,mixed test,congruent,heart_mixed,0.6054082662519384,3,8.96098518371582,1,3,0.6705018242224867
11317,51,1,heart,right,mixed test,congruent,heart_mixed,0.5475432067011535,3,8.96098518371582,1,3,0.6705018242224867
11317,57,1,flower,left,mixed test,incongruent,flower_mixed,0.5877866649021191,3,8.96098518371582,1,3,0.6705018242224867
11317,63,1,flower,right,mixed test,incongruent,flower_mixed,0.554459660786052,3,8.96098518371582,1,3,0.6705018242224867
11317,69,1,heart,right,mixed test,congruent,heart_mixed,0.4712528486461674,3,8.96098518371582,1,3,0.6705018242224867
11317,73,1,flower,right,mixed test,incongruent,flower_mixed,0.5782973388810033,3,8.96098518371582,1,3,0.6705018242224867
11318,9,1,heart,right,hearts test,congruent,heart_only,0.3148107398400336,1,9.12799453735352,1,3,0.15905226162061725
11318,14,1,heart,left,hearts test,congruent,heart_only,0.3513608491149636,2,9.12799453735352,1,3,0.15905226162061725
11318,20,1,heart,right,hearts test,congruent,heart_only,0.4054651081081644,2,9.12799453735352,1,3,0.15905226162061725
11318,33,1,flower,right,flowers test,incongruent,other,0.4731237565819792,2,9.12799453735352,1,3,0.15905226162061725
11318,34,1,flower,left,flowers test,incongruent,other,0.4649910874221913,2,9.12799453735352,1,3,0.15905226162061725
11318,43,0,heart,right,mixed test,congruent,heart_mixed,0.4330802751411378,3,9.12799453735352,1,3,0.15905226162061725
11318,50,1,flower,right,mixed test,incongruent,flower_mixed,0.6291418505840328,3,9.12799453735352,1,3,0.15905226162061725
11318,53,1,heart,left,mixed test,congruent,heart_mixed,0.7443154671343447,3,9.12799453735352,1,3,0.15905226162061725
11318,65,1,heart,left,mixed test,congruent,heart_mixed,0.49956243148728,3,9.12799453735352,1,3,0.15905226162061725
11318,70,1,heart,right,mixed test,congruent,heart_mixed,0.4989554511955033,3,9.12799453735352,1,3,0.15905226162061725
11318,71,0,flower,left,mixed test,incongruent,flower_mixed,0.3421702577358506,3,9.12799453735352,1,3,0.15905226162061725
11319,18,1,heart,left,hearts test,congruent,heart_only,0.44980092192821614,2,9,1,3,0.4820122949248084
11319,32,1,flower,right,flowers test,incongruent,other,0.40613155265132483,2,9,1,3,0.4820122949248084
11319,37,1,flower,left,flowers test,incongruent,other,0.3220834991691132,3,9,1,3,0.4820122949248084
11319,47,1,flower,left,mixed test,incongruent,flower_mixed,0.44980092192821614,3,9,1,3,0.4820122949248084
11319,64,1,heart,left,mixed test,congruent,heart_mixed,0.4343764516025845,3,9,1,3,0.4820122949248084
11320,11,1,heart,left,hearts test,congruent,heart_only,0.33718626735486995,2,8.37508583068848,1,3,0.7332439069209504
11320,13,1,heart,right,hearts test,congruent,heart_only,0.3314596947976687,2,8.37508583068848,1,3,0.7332439069209504
11320,14,1,heart,left,hearts test,congruent,heart_only,0.316998126785834,2,8.37508583068848,1,3,0.7332439069209504
11320,17,1,heart,left,hearts test,congruent,heart_only,0.3625576070968879,2,8.37508583068848,1,3,0.7332439069209504
11320,30,1,flower,left,flowers test,incongruent,other,0.48980625654191534,2,8.37508583068848,1,3,0.7332439069209504
11320,33,1,flower,right,flowers test,incongruent,other,0.34145977813225203,2,8.37508583068848,1,3,0.7332439069209504
11320,36,1,flower,right,flowers test,incongruent,other,0.6429059641231987,3,8.37508583068848,1,3,0.7332439069209504
11320,40,1,flower,left,flowers test,incongruent,other,0.33932530560361934,3,8.37508583068848,1,3,0.7332439069209504
11320,42,1,heart,right,mixed test,congruent,heart_mixed,0.4643627493556498,3,8.37508583068848,1,3,0.7332439069209504
11320,52,1,heart,left,mixed test,congruent,heart_mixed,0.5510074133988224,3,8.37508583068848,1,3,0.7332439069209504
11320,53,1,heart,left,mixed test,congruent,heart_mixed,0.47374661552456987,3,8.37508583068848,1,3,0.7332439069209504
11320,56,1,flower,right,mixed test,incongruent,flower_mixed,0.45805755822733496,3,8.37508583068848,1,3,0.7332439069209504
11320,58,1,flower,left,mixed test,incongruent,flower_mixed,0.6157260335913605,3,8.37508583068848,1,3,0.7332439069209504
11320,65,1,heart,left,mixed test,congruent,heart_mixed,0.42264993286226527,3,8.37508583068848,1,3,0.7332439069209504
11320,71,1,flower,left,mixed test,incongruent,flower_mixed,0.4953058121079539,3,8.37508583068848,1,3,0.7332439069209504
11320,72,1,flower,right,mixed test,incongruent,flower_mixed,0.5019866750987864,3,8.37508583068848,1,3,0.7332439069209504
11321,10,1,heart,left,hearts test,congruent,heart_only,0.42264993286226527,1,8.70910358428955,1,3,0.3836323406339931
11321,15,1,heart,right,hearts test,congruent,heart_only,0.3450071390710503,2,8.70910358428955,1,3,0.3836323406339931
11321,42,0,heart,right,mixed test,congruent,heart_mixed,0.5074198306311578,3,8.70910358428955,1,3,0.3836323406339931
11321,51,1,heart,right,mixed test,congruent,heart_mixed,0.6355180677233089,3,8.70910358428955,1,3,0.3836323406339931
11321,55,1,heart,right,mixed test,congruent,heart_mixed,0.7193021380367964,3,8.70910358428955,1,3,0.3836323406339931
11321,59,1,heart,left,mixed test,congruent,heart_mixed,0.6632033041868731,3,8.70910358428955,1,3,0.3836323406339931
11321,60,1,heart,right,mixed test,congruent,heart_mixed,0.6693666518945418,3,8.70910358428955,1,3,0.3836323406339931
11321,63,1,flower,right,mixed test,incongruent,flower_mixed,0.5561813254867879,3,8.70910358428955,1,3,0.3836323406339931
11321,64,1,heart,left,mixed test,congruent,heart_mixed,0.5816568045265822,3,8.70910358428955,1,3,0.3836323406339931
11321,72,1,flower,right,mixed test,incongruent,flower_mixed,0.554459660786052,3,8.70910358428955,1,3,0.3836323406339931
11322,17,1,heart,left,hearts test,congruent,heart_only,0.3625576070968879,2,8.87611198425293,0,3,0.9931698478197402
11322,46,1,flower,left,mixed test,incongruent,flower_mixed,0.6580380034463774,3,8.87611198425293,0,3,0.9931698478197402
11322,55,0,heart,right,mixed test,congruent,heart_mixed,0.5624688569178291,3,8.87611198425293,0,3,0.9931698478197402
11322,67,1,flower,right,mixed test,incongruent,flower_mixed,0.6221880916194514,3,8.87611198425293,0,3,0.9931698478197402
11322,68,1,heart,left,mixed test,congruent,heart_mixed,0.6015799870344548,3,8.87611198425293,0,3,0.9931698478197402
11323,12,1,heart,right,hearts test,congruent,heart_only,0.31115442863692305,2,8.79397678375244,1,3,-0.4938947305353448
11323,17,1,heart,left,hearts test,congruent,heart_only,0.3597701488460348,2,8.79397678375244,1,3,-0.4938947305353448
11323,20,1,heart,right,hearts test,congruent,heart_only,0.39810475370187187,2,8.79397678375244,1,3,-0.4938947305353448
11323,34,1,flower,left,flowers test,incongruent,other,0.44660705143933954,2,8.79397678375244,1,3,-0.4938947305353448
11323,38,0,flower,left,flowers test,incongruent,other,0.39068982252601003,3,8.79397678375244,1,3,-0.4938947305353448
11323,41,1,flower,right,mixed test,incongruent,flower_mixed,0.4504384737508955,3,8.79397678375244,1,3,-0.4938947305353448
11323,54,0,flower,left,mixed test,incongruent,flower_mixed,0.4047982191204607,3,8.79397678375244,1,3,-0.4938947305353448
11323,66,1,flower,left,mixed test,incongruent,flower_mixed,0.3974329364109001,3,8.79397678375244,1,3,-0.4938947305353448
11323,70,1,heart,right,mixed test,congruent,heart_mixed,0.3818552424690307,3,8.79397678375244,1,3,-0.4938947305353448
11324,9,1,heart,right,hearts test,congruent,heart_only,0.41871033485818504,1,8.45722103118896,1,3,1.0563690213748165
11324,29,1,flower,right,flowers test,incongruent,other,0.5584722772333437,2,8.45722103118896,1,3,1.0563690213748165
11324,36,1,flower,right,flowers test,incongruent,other,0.4612151232126562,3,8.45722103118896,1,3,1.0563690213748165
11324,37,1,flower,left,flowers test,incongruent,other,0.5170064828410719,3,8.45722103118896,1,3,1.0563690213748165
11324,49,1,flower,right,mixed test,incongruent,flower_mixed,0.5877866649021191,3,8.45722103118896,1,3,1.0563690213748165
11324,54,1,flower,left,mixed test,incongruent,flower_mixed,0.47499117075677466,3,8.45722103118896,1,3,1.0563690213748165
11324,62,1,heart,right,mixed test,congruent,heart_mixed,0.5675839575845996,3,8.45722103118896,1,3,1.0563690213748165
11324,63,1,flower,right,mixed test,incongruent,flower_mixed,0.7016112589720747,3,8.45722103118896,1,3,1.0563690213748165
11324,65,1,heart,left,mixed test,congruent,heart_mixed,0.47685510419483734,3,8.45722103118896,1,3,1.0563690213748165
11801,9,1,heart,right,hearts test,congruent,heart_only,0.44147554563119756,1,8.96098518371582,1,3,-0.22457061204663145
11801,29,1,flower,right,flowers test,incongruent,other,0.40346310543749125,2,8.96098518371582,1,3,-0.22457061204663145
11801,30,1,flower,left,flowers test,incongruent,other,0.42722659988967704,2,8.96098518371582,1,3,-0.22457061204663145
11801,31,1,flower,left,flowers test,incongruent,other,0.4200252594394941,2,8.96098518371582,1,3,-0.22457061204663145
11801,34,1,flower,left,flowers test,incongruent,other,0.3343270802748248,2,8.96098518371582,1,3,-0.22457061204663145
11801,35,1,flower,right,flowers test,incongruent,other,0.4574248470388755,3,8.96098518371582,1,3,-0.22457061204663145
11801,36,0,flower,right,flowers test,incongruent,other,0.03246719013750141,3,8.96098518371582,1,3,-0.22457061204663145
11801,46,1,flower,left,mixed test,incongruent,flower_mixed,0.7612730096075457,3,8.96098518371582,1,3,-0.22457061204663145
11801,53,1,heart,left,mixed test,congruent,heart_mixed,0.6497176226326093,3,8.96098518371582,1,3,-0.22457061204663145
11801,57,1,flower,left,mixed test,incongruent,flower_mixed,0.5527350268432003,3,8.96098518371582,1,3,-0.22457061204663145
11801,64,0,heart,left,mixed test,congruent,heart_mixed,0.46937843385181716,3,8.96098518371582,1,3,-0.22457061204663145
11801,70,1,heart,right,mixed test,congruent,heart_mixed,0.5567545556543906,3,8.96098518371582,1,3,-0.22457061204663145
11802,12,1,heart,right,hearts test,congruent,heart_only,0.42395969074432877,2,9.20465469360352,0,3,1.6456025377686283
11802,14,1,heart,left,hearts test,congruent,heart_only,0.3667242797917339,2,9.20465469360352,0,3,1.6456025377686283
11802,15,1,heart,right,hearts test,congruent,heart_only,0.3708736633385454,2,9.20465469360352,0,3,1.6456025377686283
11802,20,1,heart,right,hearts test,congruent,heart_only,0.3852624007906449,2,9.20465469360352,0,3,1.6456025377686283
11802,30,1,flower,left,flowers test,incongruent,other,0.38253760346445975,2,9.20465469360352,0,3,1.6456025377686283
11802,31,1,flower,left,flowers test,incongruent,other,0.47187687362741587,2,9.20465469360352,0,3,1.6456025377686283
11802,35,1,flower,right,flowers test,incongruent,other,0.4681268692328754,3,9.20465469360352,0,3,1.6456025377686283
11802,40,1,flower,left,flowers test,incongruent,other,0.5235443961737654,3,9.20465469360352,0,3,1.6456025377686283
11802,43,1,heart,right,mixed test,congruent,heart_mixed,0.3701832939635246,3,9.20465469360352,0,3,1.6456025377686283
11802,45,1,flower,right,mixed test,incongruent,flower_mixed,0.3873011374804931,3,9.20465469360352,0,3,1.6456025377686283
11802,47,1,flower,left,mixed test,incongruent,flower_mixed,0.5164100020598914,3,9.20465469360352,0,3,1.6456025377686283
11802,53,1,heart,left,mixed test,congruent,heart_mixed,0.49956243148728,3,9.20465469360352,0,3,1.6456025377686283
11802,56,1,flower,right,mixed test,incongruent,flower_mixed,0.5658818295140692,3,9.20465469360352,0,3,1.6456025377686283
11802,59,1,heart,left,mixed test,congruent,heart_mixed,0.5364933705145685,3,9.20465469360352,0,3,1.6456025377686283
11802,60,1,heart,right,mixed test,congruent,heart_mixed,0.5007752879124892,3,9.20465469360352,0,3,1.6456025377686283
11802,62,1,heart,right,mixed test,congruent,heart_mixed,0.49408629976169266,3,9.20465469360352,0,3,1.6456025377686283
11802,71,1,flower,left,mixed test,incongruent,flower_mixed,0.5726730270920709,3,9.20465469360352,0,3,1.6456025377686283
11802,73,1,flower,right,mixed test,incongruent,flower_mixed,0.5596157879354227,3,9.20465469360352,0,3,1.6456025377686283
11803,15,1,heart,right,hearts test,congruent,heart_only,0.34642256747438094,2,9,1,3,0.16555954122263333
11803,16,1,heart,right,hearts test,congruent,heart_only,0.41144717978571177,2,9,1,3,0.16555954122263333
11803,19,1,heart,left,hearts test,congruent,heart_only,0.37843643572024505,2,9,1,3,0.16555954122263333
11803,34,1,flower,left,flowers test,incongruent,other,0.46058440732924394,2,9,1,3,0.16555954122263333
11803,36,1,flower,right,flowers test,incongruent,other,0.538829820175588,3,9,1,3,0.16555954122263333
11803,67,1,flower,right,mixed test,incongruent,flower_mixed,0.5294510878891555,3,9,1,3,0.16555954122263333
11804,12,1,heart,right,hearts test,congruent,heart_only,0.371563556432483,2,9.12799453735352,0,3,0.7920648445029591
11804,13,1,heart,right,hearts test,congruent,heart_only,0.41144717978571177,2,9.12799453735352,0,3,0.7920648445029591
11804,34,1,flower,left,flowers test,incongruent,other,0.4337285733810239,2,9.12799453735352,0,3,0.7920648445029591
11804,38,1,flower,left,flowers test,incongruent,other,0.4818086746954981,3,9.12799453735352,0,3,0.7920648445029591
11804,40,1,flower,left,flowers test,incongruent,other,0.39339252687389514,3,9.12799453735352,0,3,0.7920648445029591
11804,48,1,heart,left,mixed test,congruent,heart_mixed,0.5922212619699848,3,9.12799453735352,0,3,0.7920648445029591
11804,49,0,flower,right,mixed test,incongruent,flower_mixed,0.458689869345462,3,9.12799453735352,0,3,0.7920648445029591
11804,52,1,heart,left,mixed test,congruent,heart_mixed,0.5423242908253617,3,9.12799453735352,0,3,0.7920648445029591
11804,54,1,flower,left,mixed test,incongruent,flower_mixed,0.5086232002107907,3,9.12799453735352,0,3,0.7920648445029591
11804,57,1,flower,left,mixed test,incongruent,flower_mixed,0.5492768101402434,3,9.12799453735352,0,3,0.7920648445029591
11804,63,1,flower,right,mixed test,incongruent,flower_mixed,0.647626665258136,3,9.12799453735352,0,3,0.7920648445029591
11804,66,1,flower,left,mixed test,incongruent,flower_mixed,0.3900130035492427,3,9.12799453735352,0,3,0.7920648445029591
11804,69,1,heart,right,mixed test,congruent,heart_mixed,0.6146449524049877,3,9.12799453735352,0,3,0.7920648445029591
11804,72,1,flower,right,mixed test,incongruent,flower_mixed,0.520577915208669,3,9.12799453735352,0,3,0.7920648445029591
11805,9,1,heart,right,hearts test,congruent,heart_only,0.4081282255276481,1,9.04312133789062,0,3,0.7506240971873243
11805,10,1,heart,left,hearts test,congruent,heart_only,0.3228078744271551,1,9.04312133789062,0,3,0.7506240971873243
11805,11,1,heart,left,hearts test,congruent,heart_only,0.40078751855705325,2,9.04312133789062,0,3,0.7506240971873243
11805,12,1,heart,right,hearts test,congruent,heart_only,0.233489843368354,2,9.04312133789062,0,3,0.7506240971873243
11805,34,1,flower,left,flowers test,incongruent,other,0.3632532592988549,2,9.04312133789062,0,3,0.7506240971873243
11805,36,1,flower,right,flowers test,incongruent,other,0.37775126954064864,3,9.04312133789062,0,3,0.7506240971873243
11805,39,1,flower,right,flowers test,incongruent,other,0.39541477225466287,3,9.04312133789062,0,3,0.7506240971873243
11805,40,1,flower,left,flowers test,incongruent,other,0.44147554563119756,3,9.04312133789062,0,3,0.7506240971873243
11805,41,1,flower,right,mixed test,incongruent,flower_mixed,0.4356709501652302,3,9.04312133789062,0,3,0.7506240971873243
11805,48,1,heart,left,mixed test,congruent,heart_mixed,0.49225423818055536,3,9.04312133789062,0,3,0.7506240971873243
11805,49,1,flower,right,mixed test,incongruent,flower_mixed,0.4548899914356874,3,9.04312133789062,0,3,0.7506240971873243
11805,51,1,heart,right,mixed test,congruent,heart_mixed,0.5116253039365551,3,9.04312133789062,0,3,0.7506240971873243
11805,53,0,heart,left,mixed test,congruent,heart_mixed,0.42068207391302487,3,9.04312133789062,0,3,0.7506240971873243
11805,54,1,flower,left,mixed test,incongruent,flower_mixed,0.4891933236388768,3,9.04312133789062,0,3,0.7506240971873243
11805,56,1,flower,right,mixed test,incongruent,flower_mixed,0.4356709501652302,3,9.04312133789062,0,3,0.7506240971873243
11805,57,0,flower,left,mixed test,incongruent,flower_mixed,0.5492768101402434,3,9.04312133789062,0,3,0.7506240971873243
11805,58,1,flower,left,mixed test,incongruent,flower_mixed,0.5341514490694873,3,9.04312133789062,0,3,0.7506240971873243
11805,60,1,heart,right,mixed test,congruent,heart_mixed,0.4612151232126562,3,9.04312133789062,0,3,0.7506240971873243
11805,61,1,flower,left,mixed test,incongruent,flower_mixed,0.47623417899637155,3,9.04312133789062,0,3,0.7506240971873243
11805,65,1,heart,left,mixed test,congruent,heart_mixed,0.42787870294506447,3,9.04312133789062,0,3,0.7506240971873243
11806,31,1,flower,left,flowers test,incongruent,other,0.5187937934151676,2,8,0,3,0.25179991328117307
11806,32,1,flower,right,flowers test,incongruent,other,0.4074631107708375,2,8,0,3,0.25179991328117307
11806,52,1,heart,left,mixed test,congruent,heart_mixed,0.5353230953663781,3,8,0,3,0.25179991328117307
11806,56,0,flower,right,mixed test,incongruent,flower_mixed,0.49652383905513103,3,8,0,3,0.25179991328117307
11806,73,1,flower,right,mixed test,incongruent,flower_mixed,0.5504308783583501,3,8,0,3,0.25179991328117307
11807,14,1,heart,left,hearts test,congruent,heart_only,0.33361100434018065,2,8.87611198425293,1,3,0.4021227512828549
11807,20,1,heart,right,hearts test,congruent,heart_only,0.37980536132758674,2,8.87611198425293,1,3,0.4021227512828549
11807,30,1,flower,left,flowers test,incongruent,other,0.4631048875545789,2,8.87611198425293,1,3,0.4021227512828549
11807,34,1,flower,left,flowers test,incongruent,other,0.3839009301923238,2,8.87611198425293,1,3,0.4021227512828549
11807,40,1,flower,left,flowers test,incongruent,other,0.4504384737508955,3,8.87611198425293,1,3,0.4021227512828549
11807,41,1,flower,right,mixed test,incongruent,flower_mixed,0.5446471722415014,3,8.87611198425293,1,3,0.4021227512828549
11807,54,1,flower,left,mixed test,incongruent,flower_mixed,0.5636078092049602,3,8.87611198425293,1,3,0.4021227512828549
11807,55,1,heart,right,mixed test,congruent,heart_mixed,0.6896410412306576,3,8.87611198425293,1,3,0.4021227512828549
11807,69,1,heart,right,mixed test,congruent,heart_mixed,0.5044050559630681,3,8.87611198425293,1,3,0.4021227512828549
11808,14,1,heart,left,hearts test,congruent,heart_only,0.32570013963930183,2,8.45722103118896,1,3,-0.3917003658627875
11808,15,1,heart,right,hearts test,congruent,heart_only,0.36464311358790924,2,8.45722103118896,1,3,-0.3917003658627875
11808,20,1,heart,right,hearts test,congruent,heart_only,0.42264993286226527,2,8.45722103118896,1,3,-0.3917003658627875
11808,31,0,flower,left,flowers test,incongruent,other,0.38662202030668447,2,8.45722103118896,1,3,-0.3917003658627875
11808,38,1,flower,left,flowers test,incongruent,other,0.4731237565819792,3,8.45722103118896,1,3,-0.3917003658627875
11808,39,1,flower,right,flowers test,incongruent,other,0.4971322966339882,3,8.45722103118896,1,3,-0.3917003658627875
11808,44,0,heart,left,mixed test,congruent,heart_mixed,0.5312163134137248,3,8.45722103118896,1,3,-0.3917003658627875
11808,50,1,flower,right,mixed test,incongruent,flower_mixed,0.6734545472142092,3,8.45722103118896,1,3,-0.3917003658627875
11808,62,0,heart,right,mixed test,congruent,heart_mixed,0.5788580341578177,3,8.45722103118896,1,3,-0.3917003658627875
11808,66,1,flower,left,mixed test,incongruent,flower_mixed,0.5556077665378838,3,8.45722103118896,1,3,-0.3917003658627875
11809,30,1,flower,left,flowers test,incongruent,other,0.5423242908253617,2,8.79397678375244,1,3,-0.07177524151661409
11809,41,1,flower,right,mixed test,incongruent,flower_mixed,0.543486406005539,3,8.79397678375244,1,3,-0.07177524151661409
11809,45,1,flower,right,mixed test,incongruent,flower_mixed,0.5411608235620636,3,8.79397678375244,1,3,-0.07177524151661409
11809,50,1,flower,right,mixed test,incongruent,flower_mixed,0.6141039732194924,3,8.79397678375244,1,3,-0.07177524151661409
11809,60,0,heart,right,mixed test,congruent,heart_mixed,0.4799539600989037,3,8.79397678375244,1,3,-0.07177524151661409
11809,62,1,heart,right,mixed test,congruent,heart_mixed,0.6146449524049877,3,8.79397678375244,1,3,-0.07177524151661409
11809,67,1,flower,right,mixed test,incongruent,flower_mixed,0.7537718023763802,3,8.79397678375244,1,3,-0.07177524151661409
11809,73,1,flower,right,mixed test,incongruent,flower_mixed,0.5122246446796981,3,8.79397678375244,1,3,-0.07177524151661409
11810,9,1,heart,right,hearts test,congruent,heart_only,0.40078751855705325,1,9.54141044616699,1,3,-0.07053079441187826
11810,11,1,heart,left,hearts test,congruent,heart_only,0.5900064216404319,2,9.54141044616699,1,3,-0.07053079441187826
11810,12,1,heart,right,hearts test,congruent,heart_only,0.4631048875545789,2,9.54141044616699,1,3,-0.07053079441187826
11810,16,1,heart,right,hearts test,congruent,heart_only,0.5223588595796637,2,9.54141044616699,1,3,-0.07053079441187826
11810,32,1,flower,right,flowers test,incongruent,other,0.5080216964332565,2,9.54141044616699,1,3,-0.07053079441187826
11810,40,1,flower,left,flowers test,incongruent,other,0.5056120567131032,3,9.54141044616699,1,3,-0.07053079441187826
11810,49,1,flower,right,mixed test,incongruent,flower_mixed,0.5469646703818639,3,9.54141044616699,1,3,-0.07053079441187826
11810,53,1,heart,left,mixed test,congruent,heart_mixed,0.5300398426897949,3,9.54141044616699,1,3,-0.07053079441187826
11810,58,1,flower,left,mixed test,incongruent,flower_mixed,0.6749832099322741,3,9.54141044616699,1,3,-0.07053079441187826
11810,59,1,heart,left,mixed test,congruent,heart_mixed,0.6668032052203433,3,9.54141044616699,1,3,-0.07053079441187826
11810,63,1,flower,right,mixed test,incongruent,flower_mixed,0.6232610530957788,3,9.54141044616699,1,3,-0.07053079441187826
11810,69,0,heart,right,mixed test,congruent,heart_mixed,0.41805222361363586,3,9.54141044616699,1,3,-0.07053079441187826
11811,9,1,heart,right,hearts test,congruent,heart_only,0.40078751855705325,1,9.20465469360352,1,3,0.3078171725435176
11811,10,1,heart,left,hearts test,congruent,heart_only,0.32353172534547825,1,9.20465469360352,1,3,0.3078171725435176
11811,40,1,flower,left,flowers test,incongruent,other,0.3804891220379873,3,9.20465469360352,1,3,0.3078171725435176
11811,42,1,heart,right,mixed test,congruent,heart_mixed,0.6911451778892722,3,9.20465469360352,1,3,0.3078171725435176
11811,44,1,heart,left,mixed test,congruent,heart_mixed,0.6906440503418269,3,9.20465469360352,1,3,0.3078171725435176
11811,46,1,flower,left,mixed test,incongruent,flower_mixed,0.5647454657554211,3,9.20465469360352,1,3,0.3078171725435176
11811,48,1,heart,left,mixed test,congruent,heart_mixed,0.555033878430311,3,9.20465469360352,1,3,0.3078171725435176
11811,58,1,flower,left,mixed test,incongruent,flower_mixed,0.532978428407124,3,9.20465469360352,1,3,0.3078171725435176
11811,60,0,heart,right,mixed test,congruent,heart_mixed,0.5417427264007121,3,9.20465469360352,1,3,0.3078171725435176
11811,64,1,heart,left,mixed test,congruent,heart_mixed,0.8104856729771787,3,9.20465469360352,1,3,0.3078171725435176
11811,65,1,heart,left,mixed test,congruent,heart_mixed,0.5715443588006964,3,9.20465469360352,1,3,0.3078171725435176
11811,70,1,heart,right,mixed test,congruent,heart_mixed,0.5675839575845996,3,9.20465469360352,1,3,0.3078171725435176
11812,9,1,heart,right,hearts test,congruent,heart_only,0.44018854416654996,1,8.70910358428955,0,3,-0.6266843741541801
11812,11,1,heart,left,hearts test,congruent,heart_only,0.3264219007677116,2,8.70910358428955,0,3,-0.6266843741541801
11812,16,1,heart,right,hearts test,congruent,heart_only,0.32353172534547825,2,8.70910358428955,0,3,-0.6266843741541801
11812,17,1,heart,left,hearts test,congruent,heart_only,0.3030631744900833,2,8.70910358428955,0,3,-0.6266843741541801
11812,20,1,heart,right,hearts test,congruent,heart_only,0.2600539053343068,2,8.70910358428955,0,3,-0.6266843741541801
11812,33,1,flower,right,flowers test,incongruent,other,0.4047982191204607,2,8.70910358428955,0,3,-0.6266843741541801
11812,37,1,flower,left,flowers test,incongruent,other,0.5235443961737654,3,8.70910358428955,0,3,-0.6266843741541801
11812,50,0,flower,right,mixed test,incongruent,flower_mixed,0.058268908123975824,3,8.70910358428955,0,3,-0.6266843741541801
11812,51,0,heart,right,mixed test,congruent,heart_mixed,0.5056120567131032,3,8.70910358428955,0,3,-0.6266843741541801
11812,57,1,flower,left,mixed test,incongruent,flower_mixed,0.3701832939635246,3,8.70910358428955,0,3,-0.6266843741541801
11812,60,0,heart,right,mixed test,congruent,heart_mixed,0.42330502623649546,3,8.70910358428955,0,3,-0.6266843741541801
11813,10,1,heart,left,hearts test,congruent,heart_only,0.47187687362741587,1,9.20465469360352,1,3,1.2660260667901275
11813,16,1,heart,right,hearts test,congruent,heart_only,0.41475515501525706,2,9.20465469360352,1,3,1.2660260667901275
11813,18,1,heart,left,hearts test,congruent,heart_only,0.3893357261782807,2,9.20465469360352,1,3,1.2660260667901275
11813,34,1,flower,left,flowers test,incongruent,other,0.44980092192821614,2,9.20465469360352,1,3,1.2660260667901275
11813,36,1,flower,right,flowers test,incongruent,other,0.49591501103023644,3,9.20465469360352,1,3,1.2660260667901275
11813,41,0,flower,right,mixed test,incongruent,flower_mixed,0.49225423818055536,3,9.20465469360352,1,3,1.2660260667901275
11813,50,1,flower,right,mixed test,incongruent,flower_mixed,0.5359084041334539,3,9.20465469360352,1,3,1.2660260667901275
11813,51,1,heart,right,mixed test,congruent,heart_mixed,0.34145977813225203,3,9.20465469360352,1,3,1.2660260667901275
11813,58,1,flower,left,mixed test,incongruent,flower_mixed,0.4599532933922342,3,9.20465469360352,1,3,1.2660260667901275
11813,62,0,heart,right,mixed test,congruent,heart_mixed,0.5318040301511824,3,9.20465469360352,1,3,1.2660260667901275
11813,64,1,heart,left,mixed test,congruent,heart_mixed,0.37980536132758674,3,9.20465469360352,1,3,1.2660260667901275
11813,66,1,flower,left,mixed test,incongruent,flower_mixed,0.47499117075677466,3,9.20465469360352,1,3,1.2660260667901275
11814,11,1,heart,left,hearts test,congruent,heart_only,0.38662202030668447,2,9.3744010925293,1,3,0.06624869819430167
11814,16,1,heart,right,hearts test,congruent,heart_only,0.34642256747438094,2,9.3744010925293,1,3,0.06624869819430167
11814,29,1,flower,right,flowers test,incongruent,other,0.6580380034463774,2,9.3744010925293,1,3,0.06624869819430167
11814,31,1,flower,left,flowers test,incongruent,other,0.40346310543749125,2,9.3744010925293,1,3,0.06624869819430167
11814,32,1,flower,right,flowers test,incongruent,other,0.5211719158201351,2,9.3744010925293,1,3,0.06624869819430167
11814,34,1,flower,left,flowers test,incongruent,other,0.3126185577418125,2,9.3744010925293,1,3,0.06624869819430167
11814,35,1,flower,right,flowers test,incongruent,other,0.49103099643781106,3,9.3744010925293,1,3,0.06624869819430167
11814,39,1,flower,right,flowers test,incongruent,other,0.4953058121079539,3,9.3744010925293,1,3,0.06624869819430167
11814,45,1,flower,right,mixed test,incongruent,flower_mixed,0.538829820175588,3,9.3744010925293,1,3,0.06624869819430167
11814,52,0,heart,left,mixed test,congruent,heart_mixed,0.5556077665378838,3,9.3744010925293,1,3,0.06624869819430167
11814,54,1,flower,left,mixed test,incongruent,flower_mixed,0.5031965966014995,3,9.3744010925293,1,3,0.06624869819430167
11814,57,1,flower,left,mixed test,incongruent,flower_mixed,0.6544063522435147,3,9.3744010925293,1,3,0.06624869819430167
11814,58,1,flower,left,mixed test,incongruent,flower_mixed,0.5300398426897949,3,9.3744010925293,1,3,0.06624869819430167
11814,62,1,heart,right,mixed test,congruent,heart_mixed,0.6886370250820593,3,9.3744010925293,1,3,0.06624869819430167
11814,64,1,heart,left,mixed test,congruent,heart_mixed,0.42133845726445457,3,9.3744010925293,1,3,0.06624869819430167
11814,71,0,flower,left,mixed test,incongruent,flower_mixed,0.45805755822733496,3,9.3744010925293,1,3,0.06624869819430167
11814,72,1,flower,right,mixed test,incongruent,flower_mixed,0.5636078092049602,3,9.3744010925293,1,3,0.06624869819430167
11814,73,1,flower,right,mixed test,incongruent,flower_mixed,0.4836599556932211,3,9.3744010925293,1,3,0.06624869819430167
11815,9,1,heart,right,hearts test,congruent,heart_only,0.3743183791113276,1,9.12799453735352,0,3,0.6059499271122265
11815,16,1,heart,right,hearts test,congruent,heart_only,0.36046774217742855,2,9.12799453735352,0,3,0.6059499271122265
11815,19,1,heart,left,hearts test,congruent,heart_only,0.37843643572024505,2,9.12799453735352,0,3,0.6059499271122265
11815,29,1,flower,right,flowers test,incongruent,other,0.3314596947976687,2,9.12799453735352,0,3,0.6059499271122265
11815,30,1,flower,left,flowers test,incongruent,other,0.40945712937770185,2,9.12799453735352,0,3,0.6059499271122265
11815,32,1,flower,right,flowers test,incongruent,other,0.3756929497744942,2,9.12799453735352,0,3,0.6059499271122265
11815,33,1,flower,right,flowers test,incongruent,other,0.4350239103497087,2,9.12799453735352,0,3,0.6059499271122265
11815,35,1,flower,right,flowers test,incongruent,other,0.3900130035492427,3,9.12799453735352,0,3,0.6059499271122265
11815,36,1,flower,right,flowers test,incongruent,other,0.4021262068426498,3,9.12799453735352,0,3,0.6059499271122265
11815,44,1,heart,left,mixed test,congruent,heart_mixed,0.5927742064131581,3,9.12799453735352,0,3,0.6059499271122265
11815,49,1,flower,right,mixed test,incongruent,flower_mixed,0.4873522675803486,3,9.12799453735352,0,3,0.6059499271122265
11815,52,1,heart,left,mixed test,congruent,heart_mixed,0.37775126954064864,3,9.12799453735352,0,3,0.6059499271122265
11815,54,0,flower,left,mixed test,incongruent,flower_mixed,0.4193680132771557,3,9.12799453735352,0,3,0.6059499271122265
11815,58,1,flower,left,mixed test,incongruent,flower_mixed,0.5521594872589679,3,9.12799453735352,0,3,0.6059499271122265
11815,59,1,heart,left,mixed test,congruent,heart_mixed,0.6124792774924905,3,9.12799453735352,0,3,0.6059499271122265
11815,62,1,heart,right,mixed test,congruent,heart_mixed,0.4517123592734841,3,9.12799453735352,0,3,0.6059499271122265
11815,63,1,flower,right,mixed test,incongruent,flower_mixed,0.10705907229340778,3,9.12799453735352,0,3,0.6059499271122265
11815,70,1,heart,right,mixed test,congruent,heart_mixed,0.5579000311519194,3,9.12799453735352,0,3,0.6059499271122265
11816,13,1,heart,right,hearts test,congruent,heart_only,0.3428802329165432,2,9.12799453735352,0,3,0.3098517479473725
11816,14,1,heart,left,hearts test,congruent,heart_only,0.3576744442718159,2,9.12799453735352,0,3,0.3098517479473725
11816,18,1,heart,left,hearts test,congruent,heart_only,0.44852459756861124,2,9.12799453735352,0,3,0.3098517479473725
11816,64,1,heart,left,mixed test,congruent,heart_mixed,0.6048622656923737,3,9.12799453735352,0,3,0.3098517479473725
11816,65,1,heart,left,mixed test,congruent,heart_mixed,0.4885800148186709,3,9.12799453735352,0,3,0.3098517479473725
11816,69,1,heart,right,mixed test,congruent,heart_mixed,0.6307397204313283,3,9.12799453735352,0,3,0.3098517479473725
11817,13,1,heart,right,hearts test,congruent,heart_only,0.3148107398400336,2,9.28952789306641,1,3,0.19544464329872052
11817,14,1,heart,left,hearts test,congruent,heart_only,0.34712953109520095,2,9.28952789306641,1,3,0.19544464329872052
11817,29,1,flower,right,flowers test,incongruent,other,0.6178846960593984,2,9.28952789306641,1,3,0.19544464329872052
11817,32,1,flower,right,flowers test,incongruent,other,0.4021262068426498,2,9.28952789306641,1,3,0.19544464329872052
11817,34,1,flower,left,flowers test,incongruent,other,0.3457151037023904,2,9.28952789306641,1,3,0.19544464329872052
11817,35,1,flower,right,flowers test,incongruent,other,0.5229518035638313,3,9.28952789306641,1,3,0.19544464329872052
11817,36,1,flower,right,flowers test,incongruent,other,0.43889988419440185,3,9.28952789306641,1,3,0.19544464329872052
11817,39,1,flower,right,flowers test,incongruent,other,0.36046774217742855,3,9.28952789306641,1,3,0.19544464329872052
11817,42,1,heart,right,mixed test,congruent,heart_mixed,0.498348102254878,3,9.28952789306641,1,3,0.19544464329872052
11817,72,1,flower,right,mixed test,incongruent,flower_mixed,0.5861186078014221,3,9.28952789306641,1,3,0.19544464329872052
11817,73,1,flower,right,mixed test,incongruent,flower_mixed,0.5486992761940721,3,9.28952789306641,1,3,0.19544464329872052
11818,10,1,heart,left,hearts test,congruent,heart_only,0.35487332199210414,1,8.70910358428955,0,3,0.46880124080303054
11818,13,1,heart,right,hearts test,congruent,heart_only,0.4259211166755468,2,8.70910358428955,0,3,0.46880124080303054
11818,14,1,heart,left,hearts test,congruent,heart_only,0.3845818971917402,2,8.70910358428955,0,3,0.46880124080303054
11818,15,1,heart,right,hearts test,congruent,heart_only,0.35487332199210414,2,8.70910358428955,0,3,0.46880124080303054
11818,16,1,heart,right,hearts test,congruent,heart_only,0.42133845726445457,2,8.70910358428955,0,3,0.46880124080303054
11818,18,1,heart,left,hearts test,congruent,heart_only,0.43048287108345223,2,8.70910358428955,0,3,0.46880124080303054
11818,20,1,heart,right,hearts test,congruent,heart_only,0.43631757159092915,2,8.70910358428955,0,3,0.46880124080303054
11818,29,1,flower,right,flowers test,incongruent,other,0.5567545556543906,2,8.70910358428955,0,3,0.46880124080303054
11818,30,1,flower,left,flowers test,incongruent,other,0.40413088509502776,2,8.70910358428955,0,3,0.46880124080303054
11818,33,1,flower,right,flowers test,incongruent,other,0.49652383905513103,2,8.70910358428955,0,3,0.46880124080303054
11818,36,1,flower,right,flowers test,incongruent,other,0.5370779949100564,3,8.70910358428955,0,3,0.46880124080303054
11818,46,1,flower,left,mixed test,incongruent,flower_mixed,0.7761087012742927,3,8.70910358428955,0,3,0.46880124080303054
11818,49,1,flower,right,mixed test,incongruent,flower_mixed,0.647626665258136,3,8.70910358428955,0,3,0.46880124080303054
11818,53,1,heart,left,mixed test,congruent,heart_mixed,0.005982071677547469,3,8.70910358428955,0,3,0.46880124080303054
11818,54,1,flower,left,mixed test,incongruent,flower_mixed,0.6966410698142009,3,8.70910358428955,0,3,0.46880124080303054
11818,56,1,flower,right,mixed test,incongruent,flower_mixed,0.5475432067011535,3,8.70910358428955,0,3,0.46880124080303054
11818,58,1,flower,left,mixed test,incongruent,flower_mixed,0.538829820175588,3,8.70910358428955,0,3,0.46880124080303054
11818,59,1,heart,left,mixed test,congruent,heart_mixed,0.6264730472919525,3,8.70910358428955,0,3,0.46880124080303054
11818,66,1,flower,left,mixed test,incongruent,flower_mixed,0.6491952930307626,3,8.70910358428955,0,3,0.46880124080303054
11818,68,0,heart,left,mixed test,congruent,heart_mixed,0.31554040058017735,3,8.70910358428955,0,3,0.46880124080303054
11818,69,1,heart,right,mixed test,congruent,heart_mixed,0.48119081863629987,3,8.70910358428955,0,3,0.46880124080303054
11818,70,1,heart,right,mixed test,congruent,heart_mixed,0.5382462193419829,3,8.70910358428955,0,3,0.46880124080303054
11818,72,1,flower,right,mixed test,incongruent,flower_mixed,0.7202758479481978,3,8.70910358428955,0,3,0.46880124080303054
11819,10,1,heart,left,hearts test,congruent,heart_only,0.3126185577418125,1,8.96098518371582,0,3,-0.2171642777156745
11819,18,1,heart,left,hearts test,congruent,heart_only,0.41805222361363586,2,8.96098518371582,0,3,-0.2171642777156745
11819,30,1,flower,left,flowers test,incongruent,other,0.6528458837864196,2,8.96098518371582,0,3,-0.2171642777156745
11819,31,1,flower,left,flowers test,incongruent,other,0.46373401623214006,2,8.96098518371582,0,3,-0.2171642777156745
11819,32,1,flower,right,flowers test,incongruent,other,0.34712953109520095,2,8.96098518371582,0,3,-0.2171642777156745
11819,36,1,flower,right,flowers test,incongruent,other,0.4946962418361071,3,8.96098518371582,0,3,-0.2171642777156745
11819,40,1,flower,left,flowers test,incongruent,other,0.5199835615507563,3,8.96098518371582,0,3,-0.2171642777156745
11819,42,1,heart,right,mixed test,congruent,heart_mixed,0.31918073951115183,3,8.96098518371582,0,3,-0.2171642777156745
11819,43,1,heart,right,mixed test,congruent,heart_mixed,0.4081282255276481,3,8.96098518371582,0,3,-0.2171642777156745
11819,49,1,flower,right,mixed test,incongruent,flower_mixed,0.6739643611431714,3,8.96098518371582,0,3,-0.2171642777156745
11819,50,0,flower,right,mixed test,incongruent,flower_mixed,0.316998126785834,3,8.96098518371582,0,3,-0.2171642777156745
11819,54,0,flower,left,mixed test,incongruent,flower_mixed,0.43243155633797864,3,8.96098518371582,0,3,-0.2171642777156745
11819,59,0,heart,left,mixed test,congruent,heart_mixed,0.41541543896133254,3,8.96098518371582,0,3,-0.2171642777156745
11819,69,1,heart,right,mixed test,congruent,heart_mixed,0.4824261492442928,3,8.96098518371582,0,3,-0.2171642777156745
11819,71,1,flower,left,mixed test,incongruent,flower_mixed,0.5647454657554211,3,8.96098518371582,0,3,-0.2171642777156745
11819,72,0,flower,right,mixed test,incongruent,flower_mixed,0.2806574575148165,3,8.96098518371582,0,3,-0.2171642777156745
11820,9,1,heart,right,hearts test,congruent,heart_only,0.46058440732924394,1,8,1,3,0.7832458591037746
11820,55,0,heart,right,mixed test,congruent,heart_mixed,0.5510074133988224,3,8,1,3,0.7832458591037746
11820,62,1,heart,right,mixed test,congruent,heart_mixed,0.4612151232126562,3,8,1,3,0.7832458591037746
11821,10,1,heart,left,hearts test,congruent,heart_only,0.3513608491149636,1,8.70910358428955,0,3,1.7231549534152522
11821,11,1,heart,left,hearts test,congruent,heart_only,0.3743183791113276,2,8.70910358428955,0,3,1.7231549534152522
11821,14,1,heart,left,hearts test,congruent,heart_only,0.4193680132771557,2,8.70910358428955,0,3,1.7231549534152522
11821,18,1,heart,left,hearts test,congruent,heart_only,0.39271753528566167,2,8.70910358428955,0,3,1.7231549534152522
11821,20,1,heart,right,hearts test,congruent,heart_only,0.33718626735486995,2,8.70910358428955,0,3,1.7231549534152522
11821,29,1,flower,right,flowers test,incongruent,other,0.37980536132758674,2,8.70910358428955,0,3,1.7231549534152522
11821,31,1,flower,left,flowers test,incongruent,other,0.33789978861239844,2,8.70910358428955,0,3,1.7231549534152522
11821,38,1,flower,left,flowers test,incongruent,other,0.40945712937770185,3,8.70910358428955,0,3,1.7231549534152522
11821,39,1,flower,right,flowers test,incongruent,other,0.4946962418361071,3,8.70910358428955,0,3,1.7231549534152522
11821,42,1,heart,right,mixed test,congruent,heart_mixed,0.4681268692328754,3,8.70910358428955,0,3,1.7231549534152522
11821,44,1,heart,left,mixed test,congruent,heart_mixed,0.5364933705145685,3,8.70910358428955,0,3,1.7231549534152522
11821,45,1,flower,right,mixed test,incongruent,flower_mixed,0.478715569847757,3,8.70910358428955,0,3,1.7231549534152522
11821,51,1,heart,right,mixed test,congruent,heart_mixed,0.48427628853245414,3,8.70910358428955,0,3,1.7231549534152522
11821,70,1,heart,right,mixed test,congruent,heart_mixed,0.3632532592988549,3,8.70910358428955,0,3,1.7231549534152522
11822,15,1,heart,right,hearts test,congruent,heart_only,0.44980092192821614,2,9.28952789306641,1,3,0.2029871448862485
11822,36,1,flower,right,flowers test,incongruent,other,0.41805222361363586,3,9.28952789306641,1,3,0.2029871448862485
11822,40,1,flower,left,flowers test,incongruent,other,0.33932530560361934,3,9.28952789306641,1,3,0.2029871448862485
11822,42,1,heart,right,mixed test,congruent,heart_mixed,0.5481214085096876,3,9.28952789306641,1,3,0.2029871448862485
11822,43,0,heart,right,mixed test,congruent,heart_mixed,0.3770656335864664,3,9.28952789306641,1,3,0.2029871448862485
11822,54,1,flower,left,mixed test,incongruent,flower_mixed,0.647626665258136,3,9.28952789306641,1,3,0.2029871448862485
11822,64,1,heart,left,mixed test,congruent,heart_mixed,0.5223588595796637,3,9.28952789306641,1,3,0.2029871448862485
11822,65,1,heart,left,mixed test,congruent,heart_mixed,0.48057258059496977,3,9.28952789306641,1,3,0.2029871448862485
