id,cov_grade,cov_female,cov_age,trial_num,resp_side,rt,block,time_limit,stim_side,time,stim_shape,cohort,resp
10501,4,0,10.0424365997314,9,right,0.437,hearts test,0.75,right,PLUS Fall,heart,plus,1
10501,4,0,10.0424365997314,19,left,0.529,hearts test,0.75,left,PLUS Fall,heart,plus,1
10501,4,0,10.0424365997314,65,left,0.713,mixed test,0.75,left,PLUS Fall,heart,plus,1
10501,4,0,10.0424365997314,68,left,0.67,mixed test,0.75,left,PLUS Fall,heart,plus,1
10502,4,0,10.1273097991943,15,right,0.681,hearts test,0.75,right,PLUS Fall,heart,plus,1
10502,4,0,10.1273097991943,16,right,0.549,hearts test,0.75,right,PLUS Fall,heart,plus,1
10502,4,0,10.1273097991943,65,left,0.58,mixed test,0.75,left,PLUS Fall,heart,plus,1
10503,4,0,10.2067079544067,13,right,0.473,hearts test,0.75,right,PLUS Fall,heart,plus,1
10503,4,0,10.2067079544067,18,left,0.432,hearts test,0.75,left,PLUS Fall,heart,plus,1
10503,4,0,10.2067079544067,44,left,0.514,mixed test,0.75,left,PLUS Fall,heart,plus,1
10503,4,0,10.2067079544067,51,right,0.53,mixed test,0.75,right,PLUS Fall,heart,plus,1
10503,4,0,10.2067079544067,62,left,0.611,mixed test,0.75,right,PLUS Fall,heart,plus,0
10503,4,0,10.2067079544067,65,left,0.716,mixed test,0.75,left,PLUS Fall,heart,plus,1
10504,4,1,10.2067079544067,18,left,0.514,hearts test,0.75,left,PLUS Fall,heart,plus,1
10504,4,1,10.2067079544067,42,right,0.566,mixed test,0.75,right,PLUS Fall,heart,plus,1
10504,4,1,10.2067079544067,69,right,0.659,mixed test,0.75,right,PLUS Fall,heart,plus,1
10505,4,0,10.1273097991943,11,left,0.725,hearts test,0.75,left,PLUS Fall,heart,plus,1
10505,4,0,10.1273097991943,14,left,0.496,hearts test,0.75,left,PLUS Fall,heart,plus,1
10505,4,0,10.1273097991943,53,left,0.685,mixed test,0.75,left,PLUS Fall,heart,plus,1
10505,4,0,10.1273097991943,68,right,0.677,mixed test,0.75,left,PLUS Fall,heart,plus,0
10507,4,1,9,9,right,0.597,hearts test,0.75,right,PLUS Fall,heart,plus,1
10507,4,1,9,10,left,0.503,hearts test,0.75,left,PLUS Fall,heart,plus,1
10507,4,1,9,70,right,0.628,mixed test,0.75,right,PLUS Fall,heart,plus,1
10508,4,0,10.0424365997314,42,right,0.667,mixed test,0.75,right,PLUS Fall,heart,plus,1
10508,4,0,10.0424365997314,43,right,0.492,mixed test,0.75,right,PLUS Fall,heart,plus,1
10509,4,1,9.45653629302979,17,left,0.719,hearts test,0.75,left,PLUS Fall,heart,plus,1
10509,4,1,9.45653629302979,20,right,0.582,hearts test,0.75,right,PLUS Fall,heart,plus,1
10509,4,1,9.45653629302979,43,left,0.542,mixed test,0.75,right,PLUS Fall,heart,plus,0
10510,4,0,10.1273097991943,12,right,0.38,hearts test,0.75,right,PLUS Fall,heart,plus,1
10510,4,0,10.1273097991943,13,right,0.425,hearts test,0.75,right,PLUS Fall,heart,plus,1
10510,4,0,10.1273097991943,15,right,0.362,hearts test,0.75,right,PLUS Fall,heart,plus,1
10510,4,0,10.1273097991943,44,right,0.506,mixed test,0.75,left,PLUS Fall,heart,plus,0
10510,4,0,10.1273097991943,48,left,0.659,mixed test,0.75,left,PLUS Fall,heart,plus,1
10511,4,0,9,12,right,0.395,hearts test,0.75,right,PLUS Fall,heart,plus,1
10511,4,0,9,20,right,0.344,hearts test,0.75,right,PLUS Fall,heart,plus,1
10511,4,0,9,59,left,0.723,mixed test,0.75,left,PLUS Fall,heart,plus,1
10511,4,0,9,69,right,0.568,mixed test,0.75,right,PLUS Fall,heart,plus,1
10512,4,1,10.2915811538696,19,left,0.7,hearts test,0.75,left,PLUS Fall,heart,plus,1
10512,4,1,10.2915811538696,42,right,0.533,mixed test,0.75,right,PLUS Fall,heart,plus,1
10512,4,1,10.2915811538696,65,left,0.238,mixed test,0.75,left,PLUS Fall,heart,plus,1
10513,4,1,9.87542819976807,9,right,0.558,hearts test,0.75,right,PLUS Fall,heart,plus,1
10513,4,1,9.87542819976807,16,right,0.636,hearts test,0.75,right,PLUS Fall,heart,plus,1
10513,4,1,9.87542819976807,70,left,0.006,mixed test,0.75,right,PLUS Fall,heart,plus,0
10514,4,1,9.96030139923096,16,right,0.525,hearts test,0.75,right,PLUS Fall,heart,plus,1
10514,4,1,9.96030139923096,18,left,0.495,hearts test,0.75,left,PLUS Fall,heart,plus,1
10514,4,1,9.96030139923096,68,left,0.726,mixed test,0.75,left,PLUS Fall,heart,plus,1
10515,4,0,9.70841884613037,43,right,0.634,mixed test,0.75,right,PLUS Fall,heart,plus,1
10515,4,0,9.70841884613037,64,left,0.721,mixed test,0.75,left,PLUS Fall,heart,plus,1
10516,4,0,10,11,left,0.535,hearts test,0.75,left,PLUS Fall,heart,plus,1
10516,4,0,10,14,left,0.482,hearts test,0.75,left,PLUS Fall,heart,plus,1
10516,4,0,10,65,left,0.623,mixed test,0.75,left,PLUS Fall,heart,plus,1
10517,4,0,10.2067079544067,9,right,0.531,hearts test,0.75,right,PLUS Fall,heart,plus,1
10517,4,0,10.2067079544067,15,right,0,hearts test,0.75,right,PLUS Fall,heart,plus,1
10517,4,0,10.2067079544067,16,left,0.034,hearts test,0.75,right,PLUS Fall,heart,plus,0
10517,4,0,10.2067079544067,64,left,0.044,mixed test,0.75,left,PLUS Fall,heart,plus,1
10518,4,1,9.70841884613037,19,left,0.51,hearts test,0.75,left,PLUS Fall,heart,plus,1
10519,4,1,9.70841884613037,13,right,0.547,hearts test,0.75,right,PLUS Fall,heart,plus,1
10519,4,1,9.70841884613037,19,left,0.465,hearts test,0.75,left,PLUS Fall,heart,plus,1
10520,4,0,10.2067079544067,14,left,0.367,hearts test,0.75,left,PLUS Fall,heart,plus,1
10520,4,0,10.2067079544067,15,right,0.428,hearts test,0.75,right,PLUS Fall,heart,plus,1
10520,4,0,10.2067079544067,55,left,0.597,mixed test,0.75,right,PLUS Fall,heart,plus,0
10520,4,0,10.2067079544067,70,left,0.579,mixed test,0.75,right,PLUS Fall,heart,plus,0
10521,4,0,10.2067079544067,14,left,0.399,hearts test,0.75,left,PLUS Fall,heart,plus,1
10521,4,0,10.2067079544067,17,right,0.04,hearts test,0.75,left,PLUS Fall,heart,plus,0
10521,4,0,10.2067079544067,60,right,0.453,mixed test,0.75,right,PLUS Fall,heart,plus,1
10522,4,1,9.98176574707031,9,right,0.629,hearts test,0.75,right,PLUS Fall,heart,plus,1
10522,4,1,9.98176574707031,14,left,0.378,hearts test,0.75,left,PLUS Fall,heart,plus,1
10523,4,1,9.3744010925293,9,right,0.669,hearts test,0.75,right,PLUS Fall,heart,plus,1
10523,4,1,9.3744010925293,10,left,0.394,hearts test,0.75,left,PLUS Fall,heart,plus,1
10523,4,1,9.3744010925293,13,right,0.437,hearts test,0.75,right,PLUS Fall,heart,plus,1
10523,4,1,9.3744010925293,17,left,0.494,hearts test,0.75,left,PLUS Fall,heart,plus,1
10523,4,1,9.3744010925293,51,right,0.711,mixed test,0.75,right,PLUS Fall,heart,plus,1
10523,4,1,9.3744010925293,64,left,0.551,mixed test,0.75,left,PLUS Fall,heart,plus,1
10525,4,1,10.0424365997314,17,left,0.389,hearts test,0.75,left,PLUS Fall,heart,plus,1
10526,4,0,10.3764543533325,15,right,0.488,hearts test,0.75,right,PLUS Fall,heart,plus,1
10527,4,0,10.1273097991943,10,left,0.423,hearts test,0.75,left,PLUS Fall,heart,plus,1
10527,4,0,10.1273097991943,17,left,0.4,hearts test,0.75,left,PLUS Fall,heart,plus,1
10528,4,1,10.2915811538696,18,right,0.357,hearts test,0.75,left,PLUS Fall,heart,plus,0
10529,4,0,9.62354564666748,11,left,0.538,hearts test,0.75,left,PLUS Fall,heart,plus,1
10529,4,0,9.62354564666748,13,right,0.489,hearts test,0.75,right,PLUS Fall,heart,plus,1
10529,4,0,9.62354564666748,44,left,0.677,mixed test,0.75,left,PLUS Fall,heart,plus,1
11301,3,1,8.79397678375244,14,left,0.544,hearts test,0.75,left,PLUS Fall,heart,plus,1
11301,3,1,8.79397678375244,48,left,0.699,mixed test,0.75,left,PLUS Fall,heart,plus,1
11302,3,1,9.12799453735352,18,left,0.517,hearts test,0.75,left,PLUS Fall,heart,plus,1
11303,3,0,9.12799453735352,13,right,0.523,hearts test,0.75,right,PLUS Fall,heart,plus,1
11303,3,0,9.12799453735352,19,left,0.701,hearts test,0.75,left,PLUS Fall,heart,plus,1
11303,3,0,9.12799453735352,60,right,0.487,mixed test,0.75,right,PLUS Fall,heart,plus,1
11303,3,0,9.12799453735352,64,left,0.691,mixed test,0.75,left,PLUS Fall,heart,plus,1
11304,3,1,8.79397678375244,10,left,0.662,hearts test,0.75,left,PLUS Fall,heart,plus,1
11304,3,1,8.79397678375244,53,left,0.727,mixed test,0.75,left,PLUS Fall,heart,plus,1
11304,3,1,8.79397678375244,55,left,0.68,mixed test,0.75,right,PLUS Fall,heart,plus,0
11305,3,1,8.96098518371582,10,left,0.687,hearts test,0.75,left,PLUS Fall,heart,plus,1
11306,3,1,9,9,right,0.42,hearts test,0.75,right,PLUS Fall,heart,plus,1
11306,3,1,9,11,left,0.422,hearts test,0.75,left,PLUS Fall,heart,plus,1
11306,3,1,9,42,right,0.671,mixed test,0.75,right,PLUS Fall,heart,plus,1
11306,3,1,9,65,left,0.711,mixed test,0.75,left,PLUS Fall,heart,plus,1
11306,3,1,9,68,right,0.672,mixed test,0.75,left,PLUS Fall,heart,plus,0
11308,3,0,8.87611198425293,12,right,0.551,hearts test,0.75,right,PLUS Fall,heart,plus,1
11308,3,0,8.87611198425293,14,left,0.534,hearts test,0.75,left,PLUS Fall,heart,plus,1
11308,3,0,8.87611198425293,19,left,0.584,hearts test,0.75,left,PLUS Fall,heart,plus,1
11308,3,0,8.87611198425293,42,right,0.684,mixed test,0.75,right,PLUS Fall,heart,plus,1
11308,3,0,8.87611198425293,59,right,0.655,mixed test,0.75,left,PLUS Fall,heart,plus,0
11309,3,1,8.45722103118896,42,right,0.508,mixed test,0.75,right,PLUS Fall,heart,plus,1
11311,3,0,8.37508583068848,13,right,0.435,hearts test,0.75,right,PLUS Fall,heart,plus,1
11311,3,0,8.37508583068848,42,right,0.514,mixed test,0.75,right,PLUS Fall,heart,plus,1
11311,3,0,8.37508583068848,43,right,0.577,mixed test,0.75,right,PLUS Fall,heart,plus,1
11312,3,1,8.37508583068848,11,left,0.562,hearts test,0.75,left,PLUS Fall,heart,plus,1
11312,3,1,8.37508583068848,12,right,0.513,hearts test,0.75,right,PLUS Fall,heart,plus,1
11312,3,1,8.37508583068848,44,left,0.578,mixed test,0.75,left,PLUS Fall,heart,plus,1
11312,3,1,8.37508583068848,51,right,0.602,mixed test,0.75,right,PLUS Fall,heart,plus,1
11312,3,1,8.37508583068848,64,left,0.543,mixed test,0.75,left,PLUS Fall,heart,plus,1
11312,3,1,8.37508583068848,68,right,0.644,mixed test,0.75,left,PLUS Fall,heart,plus,0
11313,3,1,9.20465469360352,15,right,0.405,hearts test,0.75,right,PLUS Fall,heart,plus,1
11313,3,1,9.20465469360352,19,left,0.516,hearts test,0.75,left,PLUS Fall,heart,plus,1
11314,3,0,8.96098518371582,12,right,0.698,hearts test,0.75,right,PLUS Fall,heart,plus,1
11314,3,0,8.96098518371582,14,left,0.445,hearts test,0.75,left,PLUS Fall,heart,plus,1
11314,3,0,8.96098518371582,48,left,0.653,mixed test,0.75,left,PLUS Fall,heart,plus,1
11314,3,0,8.96098518371582,68,left,0.682,mixed test,0.75,left,PLUS Fall,heart,plus,1
11315,3,1,8.87611198425293,10,left,0.49,hearts test,0.75,left,PLUS Fall,heart,plus,1
11315,3,1,8.87611198425293,12,right,0.531,hearts test,0.75,right,PLUS Fall,heart,plus,1
11315,3,1,8.87611198425293,17,left,0.708,hearts test,0.75,left,PLUS Fall,heart,plus,1
11315,3,1,8.87611198425293,18,left,0.726,hearts test,0.75,left,PLUS Fall,heart,plus,1
11316,3,0,8.45722103118896,12,right,0.404,hearts test,0.75,right,PLUS Fall,heart,plus,1
11316,3,0,8.45722103118896,13,right,0.442,hearts test,0.75,right,PLUS Fall,heart,plus,1
11316,3,0,8.45722103118896,15,right,0.338,hearts test,0.75,right,PLUS Fall,heart,plus,1
11316,3,0,8.45722103118896,19,left,0.525,hearts test,0.75,left,PLUS Fall,heart,plus,1
11316,3,0,8.45722103118896,44,left,0.612,mixed test,0.75,left,PLUS Fall,heart,plus,1
11316,3,0,8.45722103118896,53,left,0.659,mixed test,0.75,left,PLUS Fall,heart,plus,1
11316,3,0,8.45722103118896,60,left,0.726,mixed test,0.75,right,PLUS Fall,heart,plus,0
11316,3,0,8.45722103118896,65,left,0.507,mixed test,0.75,left,PLUS Fall,heart,plus,1
11317,3,1,8.96098518371582,9,right,0.623,hearts test,0.75,right,PLUS Fall,heart,plus,1
11317,3,1,8.96098518371582,15,right,0.401,hearts test,0.75,right,PLUS Fall,heart,plus,1
11317,3,1,8.96098518371582,19,left,0.607,hearts test,0.75,left,PLUS Fall,heart,plus,1
11317,3,1,8.96098518371582,69,right,0.602,mixed test,0.75,right,PLUS Fall,heart,plus,1
11318,3,1,9.12799453735352,20,right,0.5,hearts test,0.75,right,PLUS Fall,heart,plus,1
11318,3,1,9.12799453735352,65,left,0.648,mixed test,0.75,left,PLUS Fall,heart,plus,1
11319,3,1,9,18,left,0.568,hearts test,0.75,left,PLUS Fall,heart,plus,1
11319,3,1,9,64,left,0.544,mixed test,0.75,left,PLUS Fall,heart,plus,1
11320,3,1,8.37508583068848,14,left,0.373,hearts test,0.75,left,PLUS Fall,heart,plus,1
11320,3,1,8.37508583068848,17,left,0.437,hearts test,0.75,left,PLUS Fall,heart,plus,1
11320,3,1,8.37508583068848,52,left,0.735,mixed test,0.75,left,PLUS Fall,heart,plus,1
11320,3,1,8.37508583068848,65,left,0.526,mixed test,0.75,left,PLUS Fall,heart,plus,1
11801,3,1,8.96098518371582,64,right,0.599,mixed test,0.75,left,PLUS Fall,heart,plus,0
11802,3,0,9.20465469360352,12,right,0.528,hearts test,0.75,right,PLUS Fall,heart,plus,1
11802,3,0,9.20465469360352,15,right,0.449,hearts test,0.75,right,PLUS Fall,heart,plus,1
11802,3,0,9.20465469360352,53,left,0.648,mixed test,0.75,left,PLUS Fall,heart,plus,1
11802,3,0,9.20465469360352,59,left,0.71,mixed test,0.75,left,PLUS Fall,heart,plus,1
11803,3,1,9,15,right,0.414,hearts test,0.75,right,PLUS Fall,heart,plus,1
11803,3,1,9,16,right,0.509,hearts test,0.75,right,PLUS Fall,heart,plus,1
11803,3,1,9,19,left,0.46,hearts test,0.75,left,PLUS Fall,heart,plus,1
11804,3,0,9.12799453735352,12,right,0.45,hearts test,0.75,right,PLUS Fall,heart,plus,1
11805,3,0,9.04312133789062,11,left,0.493,hearts test,0.75,left,PLUS Fall,heart,plus,1
11805,3,0,9.04312133789062,51,right,0.668,mixed test,0.75,right,PLUS Fall,heart,plus,1
11805,3,0,9.04312133789062,53,right,0.523,mixed test,0.75,left,PLUS Fall,heart,plus,0
11805,3,0,9.04312133789062,65,left,0.534,mixed test,0.75,left,PLUS Fall,heart,plus,1
11806,3,0,8,52,left,0.708,mixed test,0.75,left,PLUS Fall,heart,plus,1
11807,3,1,8.87611198425293,14,left,0.396,hearts test,0.75,left,PLUS Fall,heart,plus,1
11807,3,1,8.87611198425293,20,right,0.462,hearts test,0.75,right,PLUS Fall,heart,plus,1
11807,3,1,8.87611198425293,69,right,0.656,mixed test,0.75,right,PLUS Fall,heart,plus,1
11808,3,1,8.45722103118896,14,left,0.385,hearts test,0.75,left,PLUS Fall,heart,plus,1
11808,3,1,8.45722103118896,20,right,0.526,hearts test,0.75,right,PLUS Fall,heart,plus,1
11808,3,1,8.45722103118896,44,right,0.701,mixed test,0.75,left,PLUS Fall,heart,plus,0
11810,3,1,9.54141044616699,9,right,0.493,hearts test,0.75,right,PLUS Fall,heart,plus,1
11810,3,1,9.54141044616699,16,right,0.686,hearts test,0.75,right,PLUS Fall,heart,plus,1
11810,3,1,9.54141044616699,53,left,0.699,mixed test,0.75,left,PLUS Fall,heart,plus,1
11810,3,1,9.54141044616699,69,left,0.519,mixed test,0.75,right,PLUS Fall,heart,plus,0
11811,3,1,9.20465469360352,9,right,0.493,hearts test,0.75,right,PLUS Fall,heart,plus,1
11811,3,1,9.20465469360352,10,left,0.382,hearts test,0.75,left,PLUS Fall,heart,plus,1
11811,3,1,9.20465469360352,48,left,0.742,mixed test,0.75,left,PLUS Fall,heart,plus,1
11812,3,0,8.70910358428955,9,right,0.553,hearts test,0.75,right,PLUS Fall,heart,plus,1
11812,3,0,8.70910358428955,11,left,0.386,hearts test,0.75,left,PLUS Fall,heart,plus,1
11812,3,0,8.70910358428955,17,left,0.354,hearts test,0.75,left,PLUS Fall,heart,plus,1
11812,3,0,8.70910358428955,20,right,0.297,hearts test,0.75,right,PLUS Fall,heart,plus,1
11812,3,0,8.70910358428955,60,left,0.527,mixed test,0.75,right,PLUS Fall,heart,plus,0
11813,3,1,9.20465469360352,10,left,0.603,hearts test,0.75,left,PLUS Fall,heart,plus,1
11813,3,1,9.20465469360352,18,left,0.476,hearts test,0.75,left,PLUS Fall,heart,plus,1
11813,3,1,9.20465469360352,62,left,0.702,mixed test,0.75,right,PLUS Fall,heart,plus,0
11814,3,1,9.3744010925293,16,right,0.414,hearts test,0.75,right,PLUS Fall,heart,plus,1
11814,3,1,9.3744010925293,52,right,0.743,mixed test,0.75,left,PLUS Fall,heart,plus,0
11814,3,1,9.3744010925293,64,left,0.524,mixed test,0.75,left,PLUS Fall,heart,plus,1
11815,3,0,9.12799453735352,9,right,0.454,hearts test,0.75,right,PLUS Fall,heart,plus,1
11815,3,0,9.12799453735352,52,left,0.459,mixed test,0.75,left,PLUS Fall,heart,plus,1
11815,3,0,9.12799453735352,62,right,0.571,mixed test,0.75,right,PLUS Fall,heart,plus,1
11816,3,0,9.12799453735352,13,right,0.409,hearts test,0.75,right,PLUS Fall,heart,plus,1
11816,3,0,9.12799453735352,14,left,0.43,hearts test,0.75,left,PLUS Fall,heart,plus,1
11816,3,0,9.12799453735352,18,left,0.566,hearts test,0.75,left,PLUS Fall,heart,plus,1
11816,3,0,9.12799453735352,65,left,0.63,mixed test,0.75,left,PLUS Fall,heart,plus,1
11817,3,1,9.28952789306641,14,left,0.415,hearts test,0.75,left,PLUS Fall,heart,plus,1
11818,3,0,8.70910358428955,13,right,0.531,hearts test,0.75,right,PLUS Fall,heart,plus,1
11818,3,0,8.70910358428955,14,left,0.469,hearts test,0.75,left,PLUS Fall,heart,plus,1
11818,3,0,8.70910358428955,15,right,0.426,hearts test,0.75,right,PLUS Fall,heart,plus,1
11818,3,0,8.70910358428955,20,right,0.547,hearts test,0.75,right,PLUS Fall,heart,plus,1
11818,3,0,8.70910358428955,53,left,0.006,mixed test,0.75,left,PLUS Fall,heart,plus,1
11818,3,0,8.70910358428955,68,right,0.371,mixed test,0.75,left,PLUS Fall,heart,plus,0
11819,3,0,8.96098518371582,10,left,0.367,hearts test,0.75,left,PLUS Fall,heart,plus,1
11819,3,0,8.96098518371582,18,left,0.519,hearts test,0.75,left,PLUS Fall,heart,plus,1
11819,3,0,8.96098518371582,42,right,0.376,mixed test,0.75,right,PLUS Fall,heart,plus,1
11819,3,0,8.96098518371582,43,right,0.504,mixed test,0.75,right,PLUS Fall,heart,plus,1
11819,3,0,8.96098518371582,59,right,0.515,mixed test,0.75,left,PLUS Fall,heart,plus,0
11819,3,0,8.96098518371582,69,right,0.62,mixed test,0.75,right,PLUS Fall,heart,plus,1
11820,3,1,8,9,right,0.585,hearts test,0.75,right,PLUS Fall,heart,plus,1
11820,3,1,8,55,left,0.735,mixed test,0.75,right,PLUS Fall,heart,plus,0
11820,3,1,8,62,right,0.586,mixed test,0.75,right,PLUS Fall,heart,plus,1
11821,3,0,8.70910358428955,10,left,0.421,hearts test,0.75,left,PLUS Fall,heart,plus,1
11821,3,0,8.70910358428955,20,right,0.401,hearts test,0.75,right,PLUS Fall,heart,plus,1
11821,3,0,8.70910358428955,51,right,0.623,mixed test,0.75,right,PLUS Fall,heart,plus,1
11821,3,0,8.70910358428955,70,right,0.438,mixed test,0.75,right,PLUS Fall,heart,plus,1
11822,3,1,9.28952789306641,64,left,0.686,mixed test,0.75,left,PLUS Fall,heart,plus,1
22001,4,0,9.79329204559326,11,left,0.482,hearts test,0.75,left,PLUS Fall,heart,plus,1
22001,4,0,9.79329204559326,59,left,0.645,mixed test,0.75,left,PLUS Fall,heart,plus,1
22002,4,1,9.54141044616699,10,left,0.631,hearts test,0.75,left,PLUS Fall,heart,plus,1
22002,4,1,9.54141044616699,17,left,0.362,hearts test,0.75,left,PLUS Fall,heart,plus,1
22002,4,1,9.54141044616699,18,left,0.53,hearts test,0.75,left,PLUS Fall,heart,plus,1
22002,4,1,9.54141044616699,51,right,0.514,mixed test,0.75,right,PLUS Fall,heart,plus,1
22003,4,1,10.2067079544067,9,right,0.399,hearts test,0.75,right,PLUS Fall,heart,plus,1
22003,4,1,10.2067079544067,10,left,0.398,hearts test,0.75,left,PLUS Fall,heart,plus,1
22003,4,1,10.2067079544067,70,right,0.491,mixed test,0.75,right,PLUS Fall,heart,plus,1
22004,4,0,10.2067079544067,15,right,0.434,hearts test,0.75,right,PLUS Fall,heart,plus,1
22004,4,0,10.2067079544067,62,left,0.133,mixed test,0.75,right,PLUS Fall,heart,plus,0
22005,4,1,10.1273097991943,42,right,0.66,mixed test,0.75,right,PLUS Fall,heart,plus,1
22005,4,1,10.1273097991943,43,right,0.524,mixed test,0.75,right,PLUS Fall,heart,plus,1
22007,4,0,10.458589553833,44,left,0.666,mixed test,0.75,left,PLUS Fall,heart,plus,1
22007,4,0,10.458589553833,62,right,0.517,mixed test,0.75,right,PLUS Fall,heart,plus,1
22007,4,0,10.458589553833,69,right,0.541,mixed test,0.75,right,PLUS Fall,heart,plus,1
22008,4,1,9.62354564666748,12,right,0.591,hearts test,0.75,right,PLUS Fall,heart,plus,1
22008,4,1,9.62354564666748,13,right,0.626,hearts test,0.75,right,PLUS Fall,heart,plus,1
22008,4,1,9.62354564666748,68,left,0.616,mixed test,0.75,left,PLUS Fall,heart,plus,1
22009,4,0,9.62354564666748,9,right,0.478,hearts test,0.75,right,PLUS Fall,heart,plus,1
22009,4,0,9.62354564666748,15,right,0.359,hearts test,0.75,right,PLUS Fall,heart,plus,1
22009,4,0,9.62354564666748,43,right,0.737,mixed test,0.75,right,PLUS Fall,heart,plus,1
22011,4,1,9.45653629302979,10,left,0.702,hearts test,0.75,left,PLUS Fall,heart,plus,1
22013,4,1,9.87542819976807,13,left,0.607,hearts test,0.75,right,PLUS Fall,heart,plus,0
22013,4,1,9.87542819976807,18,left,0.59,hearts test,0.75,left,PLUS Fall,heart,plus,1
22014,4,0,9.62354564666748,14,left,0.405,hearts test,0.75,left,PLUS Fall,heart,plus,1
22014,4,0,9.62354564666748,17,left,0.437,hearts test,0.75,left,PLUS Fall,heart,plus,1
22014,4,0,9.62354564666748,44,left,0.676,mixed test,0.75,left,PLUS Fall,heart,plus,1
22014,4,0,9.62354564666748,64,left,0.602,mixed test,0.75,left,PLUS Fall,heart,plus,1
22014,4,0,9.62354564666748,70,right,0.714,mixed test,0.75,right,PLUS Fall,heart,plus,1
22015,4,1,10.2067079544067,13,right,0.466,hearts test,0.75,right,PLUS Fall,heart,plus,1
22015,4,1,10.2067079544067,15,right,0.484,hearts test,0.75,right,PLUS Fall,heart,plus,1
22015,4,1,10.2067079544067,48,right,0.722,mixed test,0.75,left,PLUS Fall,heart,plus,0
22015,4,1,10.2067079544067,51,left,0.718,mixed test,0.75,right,PLUS Fall,heart,plus,0
22015,4,1,10.2067079544067,60,left,0.674,mixed test,0.75,right,PLUS Fall,heart,plus,0
22015,4,1,10.2067079544067,70,right,0.608,mixed test,0.75,right,PLUS Fall,heart,plus,1
22016,4,0,9.96030139923096,13,right,0.578,hearts test,0.75,right,PLUS Fall,heart,plus,1
22016,4,0,9.96030139923096,17,left,0.407,hearts test,0.75,left,PLUS Fall,heart,plus,1
22017,4,0,9.79329204559326,14,left,0.609,hearts test,0.75,left,PLUS Fall,heart,plus,1
22017,4,0,9.79329204559326,19,left,0.73,hearts test,0.75,left,PLUS Fall,heart,plus,1
22017,4,0,9.79329204559326,62,left,0.578,mixed test,0.75,right,PLUS Fall,heart,plus,0
22018,4,0,10.458589553833,12,right,0.442,hearts test,0.75,right,PLUS Fall,heart,plus,1
22018,4,0,10.458589553833,13,right,0.657,hearts test,0.75,right,PLUS Fall,heart,plus,1
22018,4,0,10.458589553833,19,left,0.672,hearts test,0.75,left,PLUS Fall,heart,plus,1
22019,4,0,10.1273097991943,20,right,0.448,hearts test,0.75,right,PLUS Fall,heart,plus,1
22020,4,0,9.79329204559326,9,right,0.552,hearts test,0.75,right,PLUS Fall,heart,plus,1
22020,4,0,9.79329204559326,19,left,0.602,hearts test,0.75,left,PLUS Fall,heart,plus,1
22020,4,0,9.79329204559326,68,right,0.489,mixed test,0.75,left,PLUS Fall,heart,plus,0
22021,4,1,10.5434637069702,13,right,0.674,hearts test,0.75,right,PLUS Fall,heart,plus,1
22021,4,1,10.5434637069702,17,left,0.574,hearts test,0.75,left,PLUS Fall,heart,plus,1
22021,4,1,10.5434637069702,20,right,0.485,hearts test,0.75,right,PLUS Fall,heart,plus,1
22021,4,1,10.5434637069702,43,right,0.635,mixed test,0.75,right,PLUS Fall,heart,plus,1
22021,4,1,10.5434637069702,64,right,0.645,mixed test,0.75,left,PLUS Fall,heart,plus,0
22022,4,1,9.70841884613037,12,right,0.444,hearts test,0.75,right,PLUS Fall,heart,plus,1
22022,4,1,9.70841884613037,55,right,0.715,mixed test,0.75,right,PLUS Fall,heart,plus,1
22022,4,1,9.70841884613037,59,left,0.719,mixed test,0.75,left,PLUS Fall,heart,plus,1
22023,4,1,9.62354564666748,9,right,0.649,hearts test,0.75,right,PLUS Fall,heart,plus,1
22023,4,1,9.62354564666748,12,right,0.472,hearts test,0.75,right,PLUS Fall,heart,plus,1
22023,4,1,9.62354564666748,20,right,0.554,hearts test,0.75,right,PLUS Fall,heart,plus,1
22023,4,1,9.62354564666748,65,left,0.285,mixed test,0.75,left,PLUS Fall,heart,plus,1
22024,4,0,9.79329204559326,9,right,0.669,hearts test,0.75,right,PLUS Fall,heart,plus,1
22024,4,0,9.79329204559326,10,left,0.499,hearts test,0.75,left,PLUS Fall,heart,plus,1
22024,4,0,9.79329204559326,11,left,0.661,hearts test,0.75,left,PLUS Fall,heart,plus,1
22024,4,0,9.79329204559326,52,left,0.633,mixed test,0.75,left,PLUS Fall,heart,plus,1
22025,4,0,9.45653629302979,14,left,0.548,hearts test,0.75,left,PLUS Fall,heart,plus,1
22025,4,0,9.45653629302979,20,right,0.465,hearts test,0.75,right,PLUS Fall,heart,plus,1
22025,4,0,9.45653629302979,59,left,0.539,mixed test,0.75,left,PLUS Fall,heart,plus,1
22025,4,0,9.45653629302979,70,right,0.604,mixed test,0.75,right,PLUS Fall,heart,plus,1
22026,4,1,9.87542819976807,9,right,0.58,hearts test,0.75,right,PLUS Fall,heart,plus,1
22026,4,1,9.87542819976807,14,left,0.604,hearts test,0.75,left,PLUS Fall,heart,plus,1
22026,4,1,9.87542819976807,55,left,0.66,mixed test,0.75,right,PLUS Fall,heart,plus,0
22026,4,1,9.87542819976807,59,left,0.671,mixed test,0.75,left,PLUS Fall,heart,plus,1
22027,4,0,10,12,right,0.398,hearts test,0.75,right,PLUS Fall,heart,plus,1
22027,4,0,10,17,left,0.401,hearts test,0.75,left,PLUS Fall,heart,plus,1
22027,4,0,10,18,left,0.545,hearts test,0.75,left,PLUS Fall,heart,plus,1
22027,4,0,10,20,right,0.344,hearts test,0.75,right,PLUS Fall,heart,plus,1
22027,4,0,10,64,right,0.568,mixed test,0.75,left,PLUS Fall,heart,plus,0
22027,4,0,10,68,left,0,mixed test,0.75,left,PLUS Fall,heart,plus,1
22028,4,1,9.79329204559326,16,right,0.697,hearts test,0.75,right,PLUS Fall,heart,plus,1
22028,4,1,9.79329204559326,17,left,0.634,hearts test,0.75,left,PLUS Fall,heart,plus,1
22028,4,1,9.79329204559326,65,left,0.74,mixed test,0.75,left,PLUS Fall,heart,plus,1
22029,4,0,10,10,left,0.583,hearts test,0.75,left,PLUS Fall,heart,plus,1
22029,4,0,10,51,right,0.639,mixed test,0.75,right,PLUS Fall,heart,plus,1
22029,4,0,10,52,left,0.698,mixed test,0.75,left,PLUS Fall,heart,plus,1
22030,4,1,9.79329204559326,15,right,0.525,hearts test,0.75,right,PLUS Fall,heart,plus,1
22030,4,1,9.79329204559326,62,right,0.611,mixed test,0.75,right,PLUS Fall,heart,plus,1
22030,4,1,9.79329204559326,69,right,0.679,mixed test,0.75,right,PLUS Fall,heart,plus,1
22031,4,0,10.1273097991943,69,right,0.556,mixed test,0.75,right,PLUS Fall,heart,plus,1
22032,4,1,9.96030139923096,10,left,0,hearts test,0.75,left,PLUS Fall,heart,plus,1
22032,4,1,9.96030139923096,14,left,0.416,hearts test,0.75,left,PLUS Fall,heart,plus,1
22032,4,1,9.96030139923096,20,right,0.378,hearts test,0.75,right,PLUS Fall,heart,plus,1
22032,4,1,9.96030139923096,69,right,0.499,mixed test,0.75,right,PLUS Fall,heart,plus,1
23302,3,1,9.3744010925293,13,right,0.47,hearts test,0.75,right,PLUS Fall,heart,plus,1
23302,3,1,9.3744010925293,18,left,0.468,hearts test,0.75,left,PLUS Fall,heart,plus,1
23302,3,1,9.3744010925293,43,right,0.631,mixed test,0.75,right,PLUS Fall,heart,plus,1
23303,3,0,8.37508583068848,9,right,0.523,hearts test,0.75,right,PLUS Fall,heart,plus,1
23303,3,0,8.37508583068848,20,right,0.5,hearts test,0.75,right,PLUS Fall,heart,plus,1
23303,3,0,8.37508583068848,53,left,0.604,mixed test,0.75,left,PLUS Fall,heart,plus,1
23304,3,0,8.87611198425293,18,left,0.644,hearts test,0.75,left,PLUS Fall,heart,plus,1
23304,3,0,8.87611198425293,59,left,0.727,mixed test,0.75,left,PLUS Fall,heart,plus,1
23304,3,0,8.87611198425293,62,right,0.627,mixed test,0.75,right,PLUS Fall,heart,plus,1
23304,3,0,8.87611198425293,64,right,0.544,mixed test,0.75,left,PLUS Fall,heart,plus,0
23305,3,1,8.45722103118896,18,left,0.548,hearts test,0.75,left,PLUS Fall,heart,plus,1
23305,3,1,8.45722103118896,43,right,0.613,mixed test,0.75,right,PLUS Fall,heart,plus,1
23305,3,1,8.45722103118896,53,left,0.548,mixed test,0.75,left,PLUS Fall,heart,plus,1
23305,3,1,8.45722103118896,55,right,0.677,mixed test,0.75,right,PLUS Fall,heart,plus,1
23305,3,1,8.45722103118896,60,left,0.584,mixed test,0.75,right,PLUS Fall,heart,plus,0
23306,3,0,8.96098518371582,43,right,0.503,mixed test,0.75,right,PLUS Fall,heart,plus,1
23306,3,0,8.96098518371582,62,right,0.671,mixed test,0.75,right,PLUS Fall,heart,plus,1
23307,3,0,9.20465469360352,9,right,0.361,hearts test,0.75,right,PLUS Fall,heart,plus,1
23308,3,0,9.3744010925293,18,left,0.5,hearts test,0.75,left,PLUS Fall,heart,plus,1
23308,3,0,9.3744010925293,43,right,0.741,mixed test,0.75,right,PLUS Fall,heart,plus,1
23308,3,0,9.3744010925293,51,right,0.732,mixed test,0.75,right,PLUS Fall,heart,plus,1
23308,3,0,9.3744010925293,70,right,0.626,mixed test,0.75,right,PLUS Fall,heart,plus,1
23309,3,0,9.54141044616699,55,left,0.636,mixed test,0.75,right,PLUS Fall,heart,plus,0
23309,3,0,9.54141044616699,70,right,0.56,mixed test,0.75,right,PLUS Fall,heart,plus,1
23310,3,1,8.62423038482666,16,right,0.45,hearts test,0.75,right,PLUS Fall,heart,plus,1
23310,3,1,8.62423038482666,17,left,0.641,hearts test,0.75,left,PLUS Fall,heart,plus,1
23310,3,1,8.62423038482666,64,right,0.679,mixed test,0.75,left,PLUS Fall,heart,plus,0
23311,3,0,9.3744010925293,10,left,0.522,hearts test,0.75,left,PLUS Fall,heart,plus,1
23311,3,0,9.3744010925293,17,left,0.646,hearts test,0.75,left,PLUS Fall,heart,plus,1
23311,3,0,9.3744010925293,20,right,0.624,hearts test,0.75,right,PLUS Fall,heart,plus,1
23311,3,0,9.3744010925293,59,right,0.592,mixed test,0.75,left,PLUS Fall,heart,plus,0
23312,3,0,8.62423038482666,17,left,0.391,hearts test,0.75,left,PLUS Fall,heart,plus,1
23312,3,0,8.62423038482666,19,left,0.579,hearts test,0.75,left,PLUS Fall,heart,plus,1
23312,3,0,8.62423038482666,65,left,0.654,mixed test,0.75,left,PLUS Fall,heart,plus,1
23314,3,1,10,42,left,0.712,mixed test,0.75,right,PLUS Fall,heart,plus,0
23314,3,1,10,55,left,0.725,mixed test,0.75,right,PLUS Fall,heart,plus,0
23315,3,1,9.12799453735352,13,right,0.606,hearts test,0.75,right,PLUS Fall,heart,plus,1
23315,3,1,9.12799453735352,16,right,0.624,hearts test,0.75,right,PLUS Fall,heart,plus,1
23315,3,1,9.12799453735352,65,left,0.395,mixed test,0.75,left,PLUS Fall,heart,plus,1
23316,3,0,8.87611198425293,15,right,0.477,hearts test,0.75,right,PLUS Fall,heart,plus,1
23316,3,0,8.87611198425293,19,left,0.651,hearts test,0.75,left,PLUS Fall,heart,plus,1
23318,3,1,8.62423038482666,11,left,0.666,hearts test,0.75,left,PLUS Fall,heart,plus,1
23318,3,1,8.62423038482666,14,left,0.482,hearts test,0.75,left,PLUS Fall,heart,plus,1
23318,3,1,8.62423038482666,17,left,0.502,hearts test,0.75,left,PLUS Fall,heart,plus,1
23318,3,1,8.62423038482666,19,left,0.715,hearts test,0.75,left,PLUS Fall,heart,plus,1
23318,3,1,8.62423038482666,44,left,0.726,mixed test,0.75,left,PLUS Fall,heart,plus,1
23318,3,1,8.62423038482666,51,left,0.643,mixed test,0.75,right,PLUS Fall,heart,plus,0
23318,3,1,8.62423038482666,68,left,0.733,mixed test,0.75,left,PLUS Fall,heart,plus,1
23319,3,1,8.87611198425293,13,right,0.521,hearts test,0.75,right,PLUS Fall,heart,plus,1
23319,3,1,8.87611198425293,48,left,0.716,mixed test,0.75,left,PLUS Fall,heart,plus,1
23319,3,1,8.87611198425293,59,left,0.48,mixed test,0.75,left,PLUS Fall,heart,plus,1
23320,3,0,8.96098518371582,59,left,0.666,mixed test,0.75,left,PLUS Fall,heart,plus,1
23321,3,0,8.96098518371582,15,right,0.6,hearts test,0.75,right,PLUS Fall,heart,plus,1
23321,3,0,8.96098518371582,53,left,0.501,mixed test,0.75,left,PLUS Fall,heart,plus,1
23322,3,0,8.37508583068848,9,right,0.474,hearts test,0.75,right,PLUS Fall,heart,plus,1
23322,3,0,8.37508583068848,11,left,0.525,hearts test,0.75,left,PLUS Fall,heart,plus,1
23322,3,0,8.37508583068848,16,right,0.425,hearts test,0.75,right,PLUS Fall,heart,plus,1
23322,3,0,8.37508583068848,17,left,0.493,hearts test,0.75,left,PLUS Fall,heart,plus,1
23322,3,0,8.37508583068848,18,left,0.443,hearts test,0.75,left,PLUS Fall,heart,plus,1
23322,3,0,8.37508583068848,64,left,0.626,mixed test,0.75,left,PLUS Fall,heart,plus,1
31001,3,1,8.87611198425293,10,left,0.467,hearts test,0.75,left,PLUS Fall,heart,plus,1
31001,3,1,8.87611198425293,18,left,0.616,hearts test,0.75,left,PLUS Fall,heart,plus,1
31001,3,1,8.87611198425293,68,right,0.47,mixed test,0.75,left,PLUS Fall,heart,plus,0
31002,3,1,8.96098518371582,14,left,0.601,hearts test,0.75,left,PLUS Fall,heart,plus,1
31002,3,1,8.96098518371582,16,right,0.706,hearts test,0.75,right,PLUS Fall,heart,plus,1
31002,3,1,8.96098518371582,64,right,0.61,mixed test,0.75,left,PLUS Fall,heart,plus,0
31002,3,1,8.96098518371582,65,left,0.611,mixed test,0.75,left,PLUS Fall,heart,plus,1
31003,3,1,8.92046546936035,13,right,0.602,hearts test,0.75,right,PLUS Fall,heart,plus,1
31003,3,1,8.92046546936035,14,left,0.558,hearts test,0.75,left,PLUS Fall,heart,plus,1
31003,3,1,8.92046546936035,52,right,0.05,mixed test,0.75,left,PLUS Fall,heart,plus,0
31004,3,1,8.62423038482666,10,left,0.572,hearts test,0.75,left,PLUS Fall,heart,plus,1
31004,3,1,8.62423038482666,17,left,0.484,hearts test,0.75,left,PLUS Fall,heart,plus,1
31004,3,1,8.62423038482666,42,right,0.585,mixed test,0.75,right,PLUS Fall,heart,plus,1
31005,3,1,8.62423038482666,9,right,0.606,hearts test,0.75,right,PLUS Fall,heart,plus,1
31005,3,1,8.62423038482666,12,right,0.575,hearts test,0.75,right,PLUS Fall,heart,plus,1
31005,3,1,8.62423038482666,68,right,0.527,mixed test,0.75,left,PLUS Fall,heart,plus,0
31005,3,1,8.62423038482666,69,right,0.748,mixed test,0.75,right,PLUS Fall,heart,plus,1
31006,3,1,9.62354564666748,16,right,0.531,hearts test,0.75,right,PLUS Fall,heart,plus,1
31006,3,1,9.62354564666748,17,left,0.466,hearts test,0.75,left,PLUS Fall,heart,plus,1
31006,3,1,9.62354564666748,51,right,0.679,mixed test,0.75,right,PLUS Fall,heart,plus,1
31007,3,0,9.28952789306641,10,left,0.514,hearts test,0.75,left,PLUS Fall,heart,plus,1
31007,3,0,9.28952789306641,13,left,0.495,hearts test,0.75,right,PLUS Fall,heart,plus,0
31007,3,0,9.28952789306641,14,left,0.556,hearts test,0.75,left,PLUS Fall,heart,plus,1
31007,3,0,9.28952789306641,20,right,0.501,hearts test,0.75,right,PLUS Fall,heart,plus,1
31007,3,0,9.28952789306641,42,right,0.582,mixed test,0.75,right,PLUS Fall,heart,plus,1
31007,3,0,9.28952789306641,59,left,0.585,mixed test,0.75,left,PLUS Fall,heart,plus,1
31008,3,1,8.62423038482666,12,right,0.487,hearts test,0.75,right,PLUS Fall,heart,plus,1
31008,3,1,8.62423038482666,43,right,0.593,mixed test,0.75,right,PLUS Fall,heart,plus,1
31009,3,1,9.3744010925293,10,left,0.456,hearts test,0.75,left,PLUS Fall,heart,plus,1
31009,3,1,9.3744010925293,55,right,0.711,mixed test,0.75,right,PLUS Fall,heart,plus,1
31010,3,1,8.87611198425293,10,left,0.456,hearts test,0.75,left,PLUS Fall,heart,plus,1
31011,3,0,8.70910358428955,10,left,0.502,hearts test,0.75,left,PLUS Fall,heart,plus,1
31011,3,0,8.70910358428955,15,right,0.501,hearts test,0.75,right,PLUS Fall,heart,plus,1
31011,3,0,8.70910358428955,18,left,0.692,hearts test,0.75,left,PLUS Fall,heart,plus,1
31011,3,0,8.70910358428955,44,left,0.695,mixed test,0.75,left,PLUS Fall,heart,plus,1
31012,3,0,8.45722103118896,42,right,0.726,mixed test,0.75,right,PLUS Fall,heart,plus,1
31012,3,0,8.45722103118896,51,left,0.492,mixed test,0.75,right,PLUS Fall,heart,plus,0
31012,3,0,8.45722103118896,68,left,0.599,mixed test,0.75,left,PLUS Fall,heart,plus,1
31013,3,0,8.62423038482666,10,left,0.662,hearts test,0.75,left,PLUS Fall,heart,plus,1
31013,3,0,8.62423038482666,68,right,0.552,mixed test,0.75,left,PLUS Fall,heart,plus,0
31014,3,0,9.28952789306641,9,right,0.432,hearts test,0.75,right,PLUS Fall,heart,plus,1
31014,3,0,9.28952789306641,12,right,0.422,hearts test,0.75,right,PLUS Fall,heart,plus,1
31014,3,0,9.28952789306641,20,right,0.42,hearts test,0.75,right,PLUS Fall,heart,plus,1
31014,3,0,9.28952789306641,65,left,0.439,mixed test,0.75,left,PLUS Fall,heart,plus,1
31014,3,0,9.28952789306641,69,right,0.635,mixed test,0.75,right,PLUS Fall,heart,plus,1
31016,3,0,8.62423038482666,13,right,0.674,hearts test,0.75,right,PLUS Fall,heart,plus,1
31017,3,1,9.20465469360352,11,left,0.701,hearts test,0.75,left,PLUS Fall,heart,plus,1
31017,3,1,9.20465469360352,19,left,0.692,hearts test,0.75,left,PLUS Fall,heart,plus,1
31018,3,1,9.12799453735352,52,right,0.739,mixed test,0.75,left,PLUS Fall,heart,plus,0
31019,3,0,9,16,right,0.569,hearts test,0.75,right,PLUS Fall,heart,plus,1
31019,3,0,9,18,left,0.643,hearts test,0.75,left,PLUS Fall,heart,plus,1
31019,3,0,9,20,right,0.649,hearts test,0.75,right,PLUS Fall,heart,plus,1
31019,3,0,9,44,right,0.746,mixed test,0.75,left,PLUS Fall,heart,plus,0
31019,3,0,9,53,left,0.716,mixed test,0.75,left,PLUS Fall,heart,plus,1
31020,3,0,8.62423038482666,13,right,0.558,hearts test,0.75,right,PLUS Fall,heart,plus,1
31020,3,0,8.62423038482666,19,left,0.511,hearts test,0.75,left,PLUS Fall,heart,plus,1
31020,3,0,8.62423038482666,68,right,0.609,mixed test,0.75,left,PLUS Fall,heart,plus,0
31021,3,1,8.87611198425293,9,right,0.664,hearts test,0.75,right,PLUS Fall,heart,plus,1
31021,3,1,8.87611198425293,12,right,0.47,hearts test,0.75,right,PLUS Fall,heart,plus,1
31021,3,1,8.87611198425293,14,left,0.53,hearts test,0.75,left,PLUS Fall,heart,plus,1
31021,3,1,8.87611198425293,70,right,0.606,mixed test,0.75,right,PLUS Fall,heart,plus,1
31022,3,1,9,9,right,0.428,hearts test,0.75,right,PLUS Fall,heart,plus,1
31022,3,1,9,20,right,0.512,hearts test,0.75,right,PLUS Fall,heart,plus,1
31024,3,0,9,14,left,0.346,hearts test,0.75,left,PLUS Fall,heart,plus,1
31024,3,0,9,42,right,0.677,mixed test,0.75,right,PLUS Fall,heart,plus,1
31024,3,0,9,59,right,0.596,mixed test,0.75,left,PLUS Fall,heart,plus,0
31024,3,0,9,62,left,0.731,mixed test,0.75,right,PLUS Fall,heart,plus,0
31024,3,0,9,70,right,0.562,mixed test,0.75,right,PLUS Fall,heart,plus,1
31025,3,0,8.62423038482666,9,right,0.689,hearts test,0.75,right,PLUS Fall,heart,plus,1
31025,3,0,8.62423038482666,43,right,0.621,mixed test,0.75,right,PLUS Fall,heart,plus,1
31025,3,0,8.62423038482666,60,right,0.581,mixed test,0.75,right,PLUS Fall,heart,plus,1
40901,5,1,10.5434637069702,12,right,0.367,hearts test,0.75,right,PLUS Fall,heart,plus,1
40901,5,1,10.5434637069702,13,right,0.567,hearts test,0.75,right,PLUS Fall,heart,plus,1
40901,5,1,10.5434637069702,52,left,0.594,mixed test,0.75,left,PLUS Fall,heart,plus,1
40901,5,1,10.5434637069702,69,right,0.628,mixed test,0.75,right,PLUS Fall,heart,plus,1
40902,5,0,11.6249141693115,48,right,0.603,mixed test,0.75,left,PLUS Fall,heart,plus,0
40902,5,0,11.6249141693115,51,left,0.478,mixed test,0.75,right,PLUS Fall,heart,plus,0
40902,5,0,11.6249141693115,64,left,0.593,mixed test,0.75,left,PLUS Fall,heart,plus,1
40903,5,0,10.458589553833,10,left,0.426,hearts test,0.75,left,PLUS Fall,heart,plus,1
40903,5,0,10.458589553833,12,right,0.362,hearts test,0.75,right,PLUS Fall,heart,plus,1
40903,5,0,10.458589553833,13,right,0.596,hearts test,0.75,right,PLUS Fall,heart,plus,1
40903,5,0,10.458589553833,15,right,0.435,hearts test,0.75,right,PLUS Fall,heart,plus,1
40903,5,0,10.458589553833,18,left,0.679,hearts test,0.75,left,PLUS Fall,heart,plus,1
40904,5,0,10.9623546600342,19,left,0.392,hearts test,0.75,left,PLUS Fall,heart,plus,1
40904,5,0,10.9623546600342,43,right,0.555,mixed test,0.75,right,PLUS Fall,heart,plus,1
40904,5,0,10.9623546600342,62,right,0.549,mixed test,0.75,right,PLUS Fall,heart,plus,1
40905,5,0,11.3757696151733,13,right,0.421,hearts test,0.75,right,PLUS Fall,heart,plus,1
40905,5,0,11.3757696151733,17,left,0.461,hearts test,0.75,left,PLUS Fall,heart,plus,1
40905,5,0,11.3757696151733,62,right,0.704,mixed test,0.75,right,PLUS Fall,heart,plus,1
40905,5,0,11.3757696151733,69,right,0.428,mixed test,0.75,right,PLUS Fall,heart,plus,1
40907,5,0,10.8774814605713,19,left,0.599,hearts test,0.75,left,PLUS Fall,heart,plus,1
40907,5,0,10.8774814605713,48,left,0.738,mixed test,0.75,left,PLUS Fall,heart,plus,1
40908,5,0,10.7953453063965,13,right,0.495,hearts test,0.75,right,PLUS Fall,heart,plus,1
40908,5,0,10.7953453063965,48,left,0.696,mixed test,0.75,left,PLUS Fall,heart,plus,1
40909,5,1,10.7104721069336,13,right,0.62,hearts test,0.75,right,PLUS Fall,heart,plus,1
40909,5,1,10.7104721069336,18,left,0.43,hearts test,0.75,left,PLUS Fall,heart,plus,1
40909,5,1,10.7104721069336,43,right,0.524,mixed test,0.75,right,PLUS Fall,heart,plus,1
40909,5,1,10.7104721069336,53,left,0.571,mixed test,0.75,left,PLUS Fall,heart,plus,1
40910,5,1,10.7104721069336,14,left,0.665,hearts test,0.75,left,PLUS Fall,heart,plus,1
40910,5,1,10.7104721069336,20,right,0.546,hearts test,0.75,right,PLUS Fall,heart,plus,1
40910,5,1,10.7104721069336,43,right,0.584,mixed test,0.75,right,PLUS Fall,heart,plus,1
40911,5,0,11.1293630599976,9,right,0.425,hearts test,0.75,right,PLUS Fall,heart,plus,1
40911,5,0,11.1293630599976,14,left,0.405,hearts test,0.75,left,PLUS Fall,heart,plus,1
40911,5,0,11.1293630599976,17,left,0.44,hearts test,0.75,left,PLUS Fall,heart,plus,1
40912,5,0,11.3757696151733,10,left,0.545,hearts test,0.75,left,PLUS Fall,heart,plus,1
40913,5,0,10.6255989074707,43,left,0.565,mixed test,0.75,right,PLUS Fall,heart,plus,0
40913,5,0,10.6255989074707,65,left,0.519,mixed test,0.75,left,PLUS Fall,heart,plus,1
40914,5,0,10.5434637069702,18,left,0.473,hearts test,0.75,left,PLUS Fall,heart,plus,1
40914,5,0,10.5434637069702,64,right,0.502,mixed test,0.75,left,PLUS Fall,heart,plus,0
40915,5,0,10.5434637069702,11,left,0.427,hearts test,0.75,left,PLUS Fall,heart,plus,1
40915,5,0,10.5434637069702,13,right,0.45,hearts test,0.75,right,PLUS Fall,heart,plus,1
40915,5,0,10.5434637069702,15,right,0.367,hearts test,0.75,right,PLUS Fall,heart,plus,1
40915,5,0,10.5434637069702,18,left,0.479,hearts test,0.75,left,PLUS Fall,heart,plus,1
40915,5,0,10.5434637069702,65,left,0.506,mixed test,0.75,left,PLUS Fall,heart,plus,1
40916,5,0,11.0444898605347,53,left,0.565,mixed test,0.75,left,PLUS Fall,heart,plus,1
40917,5,0,10.7104721069336,11,left,0.485,hearts test,0.75,left,PLUS Fall,heart,plus,1
40917,5,0,10.7104721069336,13,right,0.635,hearts test,0.75,right,PLUS Fall,heart,plus,1
40917,5,0,10.7104721069336,14,left,0.577,hearts test,0.75,left,PLUS Fall,heart,plus,1
40917,5,0,10.7104721069336,19,left,0.543,hearts test,0.75,left,PLUS Fall,heart,plus,1
40917,5,0,10.7104721069336,55,left,0.576,mixed test,0.75,right,PLUS Fall,heart,plus,0
40917,5,0,10.7104721069336,62,left,0.357,mixed test,0.75,right,PLUS Fall,heart,plus,0
40917,5,0,10.7104721069336,64,right,0.642,mixed test,0.75,left,PLUS Fall,heart,plus,0
40918,5,0,10.9623546600342,42,right,0.631,mixed test,0.75,right,PLUS Fall,heart,plus,1
40918,5,0,10.9623546600342,55,right,0.58,mixed test,0.75,right,PLUS Fall,heart,plus,1
40918,5,0,10.9623546600342,59,left,0.648,mixed test,0.75,left,PLUS Fall,heart,plus,1
40918,5,0,10.9623546600342,65,left,0.611,mixed test,0.75,left,PLUS Fall,heart,plus,1
40918,5,0,10.9623546600342,69,right,0.551,mixed test,0.75,right,PLUS Fall,heart,plus,1
40919,5,1,10.5434637069702,17,left,0.411,hearts test,0.75,left,PLUS Fall,heart,plus,1
40919,5,1,10.5434637069702,42,right,0.615,mixed test,0.75,right,PLUS Fall,heart,plus,1
40920,5,1,11.1293630599976,14,left,0.437,hearts test,0.75,left,PLUS Fall,heart,plus,1
40920,5,1,11.1293630599976,20,right,0.542,hearts test,0.75,right,PLUS Fall,heart,plus,1
40920,5,1,11.1293630599976,43,right,0.563,mixed test,0.75,right,PLUS Fall,heart,plus,1
40920,5,1,11.1293630599976,60,left,0.697,mixed test,0.75,right,PLUS Fall,heart,plus,0
40921,5,0,10.7104721069336,13,left,0.56,hearts test,0.75,right,PLUS Fall,heart,plus,0
40925,5,1,10.458589553833,17,left,0.455,hearts test,0.75,left,PLUS Fall,heart,plus,1
40925,5,1,10.458589553833,20,right,0.551,hearts test,0.75,right,PLUS Fall,heart,plus,1
40925,5,1,10.458589553833,59,left,0.528,mixed test,0.75,left,PLUS Fall,heart,plus,1
40926,5,0,11.2060232162476,9,right,0.472,hearts test,0.75,right,PLUS Fall,heart,plus,1
40926,5,0,11.2060232162476,12,right,0.416,hearts test,0.75,right,PLUS Fall,heart,plus,1
40926,5,0,11.2060232162476,17,left,0.381,hearts test,0.75,left,PLUS Fall,heart,plus,1
40926,5,0,11.2060232162476,18,left,0.421,hearts test,0.75,left,PLUS Fall,heart,plus,1
40926,5,0,11.2060232162476,19,left,0.403,hearts test,0.75,left,PLUS Fall,heart,plus,1
40926,5,0,11.2060232162476,51,right,0.738,mixed test,0.75,right,PLUS Fall,heart,plus,1
40926,5,0,11.2060232162476,64,left,0.729,mixed test,0.75,left,PLUS Fall,heart,plus,1
40926,5,0,11.2060232162476,68,left,0.705,mixed test,0.75,left,PLUS Fall,heart,plus,1
40927,5,1,10.3764543533325,17,left,0.441,hearts test,0.75,left,PLUS Fall,heart,plus,1
40927,5,1,10.3764543533325,62,left,0.565,mixed test,0.75,right,PLUS Fall,heart,plus,0
40927,5,1,10.3764543533325,68,left,0.639,mixed test,0.75,left,PLUS Fall,heart,plus,1
40927,5,1,10.3764543533325,69,left,0.624,mixed test,0.75,right,PLUS Fall,heart,plus,0
40928,5,1,10.458589553833,70,right,0.675,mixed test,0.75,right,PLUS Fall,heart,plus,1
40929,5,1,11,20,right,0.336,hearts test,0.75,right,PLUS Fall,heart,plus,1
40929,5,1,11,60,right,0.677,mixed test,0.75,right,PLUS Fall,heart,plus,1
40929,5,1,11,64,left,0.499,mixed test,0.75,left,PLUS Fall,heart,plus,1
40929,5,1,11,65,left,0.439,mixed test,0.75,left,PLUS Fall,heart,plus,1
41401,4,0,9.87542819976807,11,left,0.527,hearts test,0.75,left,PLUS Fall,heart,plus,1
41401,4,0,9.87542819976807,15,right,0.368,hearts test,0.75,right,PLUS Fall,heart,plus,1
41401,4,0,9.87542819976807,17,left,0.307,hearts test,0.75,left,PLUS Fall,heart,plus,1
41401,4,0,9.87542819976807,59,left,0.698,mixed test,0.75,left,PLUS Fall,heart,plus,1
41402,4,0,9.79329204559326,9,right,0.428,hearts test,0.75,right,PLUS Fall,heart,plus,1
41402,4,0,9.79329204559326,13,right,0.385,hearts test,0.75,right,PLUS Fall,heart,plus,1
41402,4,0,9.79329204559326,14,left,0.301,hearts test,0.75,left,PLUS Fall,heart,plus,1
41402,4,0,9.79329204559326,53,left,0.617,mixed test,0.75,left,PLUS Fall,heart,plus,1
41402,4,0,9.79329204559326,69,right,0.339,mixed test,0.75,right,PLUS Fall,heart,plus,1
41403,4,1,10.3764543533325,19,left,0.602,hearts test,0.75,left,PLUS Fall,heart,plus,1
41403,4,1,10.3764543533325,55,left,0.698,mixed test,0.75,right,PLUS Fall,heart,plus,0
41403,4,1,10.3764543533325,62,right,0.339,mixed test,0.75,right,PLUS Fall,heart,plus,1
41404,4,0,10.458589553833,59,right,0.671,mixed test,0.75,left,PLUS Fall,heart,plus,0
41405,4,0,9.62354564666748,18,left,0.457,hearts test,0.75,left,PLUS Fall,heart,plus,1
41405,4,0,9.62354564666748,53,right,0.742,mixed test,0.75,left,PLUS Fall,heart,plus,0
41405,4,0,9.62354564666748,65,left,0.499,mixed test,0.75,left,PLUS Fall,heart,plus,1
41406,4,1,9.54141044616699,9,right,0.537,hearts test,0.75,right,PLUS Fall,heart,plus,1
41406,4,1,9.54141044616699,19,left,0.599,hearts test,0.75,left,PLUS Fall,heart,plus,1
41407,4,1,9.45653629302979,12,right,0.466,hearts test,0.75,right,PLUS Fall,heart,plus,1
41407,4,1,9.45653629302979,16,right,0.522,hearts test,0.75,right,PLUS Fall,heart,plus,1
41408,4,0,9,10,left,0.424,hearts test,0.75,left,PLUS Fall,heart,plus,1
41408,4,0,9,42,right,0.518,mixed test,0.75,right,PLUS Fall,heart,plus,1
41408,4,0,9,44,left,0.656,mixed test,0.75,left,PLUS Fall,heart,plus,1
41408,4,0,9,48,left,0.674,mixed test,0.75,left,PLUS Fall,heart,plus,1
41408,4,0,9,64,right,0.517,mixed test,0.75,left,PLUS Fall,heart,plus,0
41409,4,1,9.62354564666748,9,right,0.721,hearts test,0.75,right,PLUS Fall,heart,plus,1
41409,4,1,9.62354564666748,10,left,0.668,hearts test,0.75,left,PLUS Fall,heart,plus,1
41409,4,1,9.62354564666748,13,right,0.542,hearts test,0.75,right,PLUS Fall,heart,plus,1
41409,4,1,9.62354564666748,14,left,0.67,hearts test,0.75,left,PLUS Fall,heart,plus,1
41409,4,1,9.62354564666748,15,right,0.548,hearts test,0.75,right,PLUS Fall,heart,plus,1
41409,4,1,9.62354564666748,18,left,0.694,hearts test,0.75,left,PLUS Fall,heart,plus,1
41409,4,1,9.62354564666748,20,right,0.667,hearts test,0.75,right,PLUS Fall,heart,plus,1
41409,4,1,9.62354564666748,62,right,0.45,mixed test,0.75,right,PLUS Fall,heart,plus,1
41410,4,0,10.458589553833,14,left,0.445,hearts test,0.75,left,PLUS Fall,heart,plus,1
41410,4,0,10.458589553833,15,right,0.391,hearts test,0.75,right,PLUS Fall,heart,plus,1
41410,4,0,10.458589553833,42,right,0.482,mixed test,0.75,right,PLUS Fall,heart,plus,1
41410,4,0,10.458589553833,51,right,0.696,mixed test,0.75,right,PLUS Fall,heart,plus,1
41410,4,0,10.458589553833,52,left,0.672,mixed test,0.75,left,PLUS Fall,heart,plus,1
41410,4,0,10.458589553833,68,right,0.469,mixed test,0.75,left,PLUS Fall,heart,plus,0
41411,4,1,10.2915811538696,13,right,0.382,hearts test,0.75,right,PLUS Fall,heart,plus,1
41411,4,1,10.2915811538696,65,left,0.629,mixed test,0.75,left,PLUS Fall,heart,plus,1
41412,4,0,10.003475189209,14,left,0.472,hearts test,0.75,left,PLUS Fall,heart,plus,1
41413,4,0,10.2915811538696,19,left,0.45,hearts test,0.75,left,PLUS Fall,heart,plus,1
41413,4,0,10.2915811538696,69,right,0.604,mixed test,0.75,right,PLUS Fall,heart,plus,1
41414,4,0,9.96030139923096,13,right,0.518,hearts test,0.75,right,PLUS Fall,heart,plus,1
41414,4,0,9.96030139923096,42,right,0.563,mixed test,0.75,right,PLUS Fall,heart,plus,1
41414,4,0,9.96030139923096,43,right,0.566,mixed test,0.75,right,PLUS Fall,heart,plus,1
41415,4,0,9.96030139923096,12,right,0.438,hearts test,0.75,right,PLUS Fall,heart,plus,1
41415,4,0,9.96030139923096,14,left,0.417,hearts test,0.75,left,PLUS Fall,heart,plus,1
41415,4,0,9.96030139923096,20,right,0.359,hearts test,0.75,right,PLUS Fall,heart,plus,1
41415,4,0,9.96030139923096,65,left,0.704,mixed test,0.75,left,PLUS Fall,heart,plus,1
41416,4,1,10.2915811538696,14,left,0.521,hearts test,0.75,left,PLUS Fall,heart,plus,1
41416,4,1,10.2915811538696,43,right,0.573,mixed test,0.75,right,PLUS Fall,heart,plus,1
41416,4,1,10.2915811538696,52,left,0.717,mixed test,0.75,left,PLUS Fall,heart,plus,1
41416,4,1,10.2915811538696,55,right,0.728,mixed test,0.75,right,PLUS Fall,heart,plus,1
41416,4,1,10.2915811538696,59,left,0.635,mixed test,0.75,left,PLUS Fall,heart,plus,1
41417,4,0,10.2067079544067,65,left,0.645,mixed test,0.75,left,PLUS Fall,heart,plus,1
41418,4,0,10.003475189209,18,left,0.475,hearts test,0.75,left,PLUS Fall,heart,plus,1
41418,4,0,10.003475189209,48,left,0.687,mixed test,0.75,left,PLUS Fall,heart,plus,1
41418,4,0,10.003475189209,55,right,0.452,mixed test,0.75,right,PLUS Fall,heart,plus,1
41419,4,0,10.3764543533325,11,left,0.453,hearts test,0.75,left,PLUS Fall,heart,plus,1
41420,4,1,10.2915811538696,10,left,0.448,hearts test,0.75,left,PLUS Fall,heart,plus,1
41420,4,1,10.2915811538696,11,left,0.481,hearts test,0.75,left,PLUS Fall,heart,plus,1
41420,4,1,10.2915811538696,16,right,0.585,hearts test,0.75,right,PLUS Fall,heart,plus,1
41421,4,1,9.54141044616699,13,right,0.408,hearts test,0.75,right,PLUS Fall,heart,plus,1
41421,4,1,9.54141044616699,70,right,0.515,mixed test,0.75,right,PLUS Fall,heart,plus,1
41422,4,0,10,14,right,0.442,hearts test,0.75,left,PLUS Fall,heart,plus,0
41422,4,0,10,20,right,0.599,hearts test,0.75,right,PLUS Fall,heart,plus,1
41422,4,0,10,44,left,0.171,mixed test,0.75,left,PLUS Fall,heart,plus,1
41422,4,0,10,53,left,0.56,mixed test,0.75,left,PLUS Fall,heart,plus,1
41422,4,0,10,64,left,0.401,mixed test,0.75,left,PLUS Fall,heart,plus,1
41422,4,0,10,69,right,0.064,mixed test,0.75,right,PLUS Fall,heart,plus,1
41423,4,0,9.87542819976807,16,right,0.443,hearts test,0.75,right,PLUS Fall,heart,plus,1
41423,4,0,9.87542819976807,18,left,0.551,hearts test,0.75,left,PLUS Fall,heart,plus,1
41423,4,0,9.87542819976807,19,left,0.541,hearts test,0.75,left,PLUS Fall,heart,plus,1
41423,4,0,9.87542819976807,20,right,0.403,hearts test,0.75,right,PLUS Fall,heart,plus,1
41423,4,0,9.87542819976807,52,left,0.687,mixed test,0.75,left,PLUS Fall,heart,plus,1
41423,4,0,9.87542819976807,59,left,0.511,mixed test,0.75,left,PLUS Fall,heart,plus,1
41423,4,0,9.87542819976807,62,left,0.59,mixed test,0.75,right,PLUS Fall,heart,plus,0
41424,4,1,10.003475189209,13,right,0.535,hearts test,0.75,right,PLUS Fall,heart,plus,1
41424,4,1,10.003475189209,18,left,0.658,hearts test,0.75,left,PLUS Fall,heart,plus,1
41424,4,1,10.003475189209,20,right,0.577,hearts test,0.75,right,PLUS Fall,heart,plus,1
41425,4,0,9.87542819976807,10,left,0.413,hearts test,0.75,left,PLUS Fall,heart,plus,1
41425,4,0,9.87542819976807,51,left,0.637,mixed test,0.75,right,PLUS Fall,heart,plus,0
41425,4,0,9.87542819976807,65,left,0.665,mixed test,0.75,left,PLUS Fall,heart,plus,1
41425,4,0,9.87542819976807,68,right,0.434,mixed test,0.75,left,PLUS Fall,heart,plus,0
41426,4,1,9.96030139923096,11,left,0.562,hearts test,0.75,left,PLUS Fall,heart,plus,1
41426,4,1,9.96030139923096,12,right,0.593,hearts test,0.75,right,PLUS Fall,heart,plus,1
41426,4,1,9.96030139923096,14,left,0.446,hearts test,0.75,left,PLUS Fall,heart,plus,1
41426,4,1,9.96030139923096,16,right,0.595,hearts test,0.75,right,PLUS Fall,heart,plus,1
41427,4,1,9.70841884613037,9,right,0.645,hearts test,0.75,right,PLUS Fall,heart,plus,1
41427,4,1,9.70841884613037,64,left,0.728,mixed test,0.75,left,PLUS Fall,heart,plus,1
41428,4,1,10.0424365997314,15,right,0.407,hearts test,0.75,right,PLUS Fall,heart,plus,1
41428,4,1,10.0424365997314,19,left,0.608,hearts test,0.75,left,PLUS Fall,heart,plus,1
41428,4,1,10.0424365997314,55,left,0.508,mixed test,0.75,right,PLUS Fall,heart,plus,0
41428,4,1,10.0424365997314,62,left,0.413,mixed test,0.75,right,PLUS Fall,heart,plus,0
41429,4,1,10.003475189209,13,right,0.557,hearts test,0.75,right,PLUS Fall,heart,plus,1
41429,4,1,10.003475189209,48,left,0.611,mixed test,0.75,left,PLUS Fall,heart,plus,1
41430,4,1,10.0424365997314,9,right,0.611,hearts test,0.75,right,PLUS Fall,heart,plus,1
41430,4,1,10.0424365997314,14,left,0.68,hearts test,0.75,left,PLUS Fall,heart,plus,1
41430,4,1,10.0424365997314,69,right,0.441,mixed test,0.75,right,PLUS Fall,heart,plus,1
41431,4,0,9.87542819976807,10,left,0.409,hearts test,0.75,left,PLUS Fall,heart,plus,1
41431,4,0,9.87542819976807,16,right,0.388,hearts test,0.75,right,PLUS Fall,heart,plus,1
41431,4,0,9.87542819976807,52,left,0.695,mixed test,0.75,left,PLUS Fall,heart,plus,1
41431,4,0,9.87542819976807,60,right,0.544,mixed test,0.75,right,PLUS Fall,heart,plus,1
41511,3,1,9.04312133789062,11,left,0.61,hearts test,0.75,left,PLUS Fall,heart,plus,1
41511,3,1,9.04312133789062,64,right,0.508,mixed test,0.75,left,PLUS Fall,heart,plus,0
41512,3,1,9.20465469360352,70,right,0.556,mixed test,0.75,right,PLUS Fall,heart,plus,1
41513,3,1,9.20465469360352,43,right,0.699,mixed test,0.75,right,PLUS Fall,heart,plus,1
41513,3,1,9.20465469360352,44,left,0.489,mixed test,0.75,left,PLUS Fall,heart,plus,1
41514,3,0,8.45722103118896,14,left,0.465,hearts test,0.75,left,PLUS Fall,heart,plus,1
41514,3,0,8.45722103118896,20,right,0.473,hearts test,0.75,right,PLUS Fall,heart,plus,1
41514,3,0,8.45722103118896,43,right,0.497,mixed test,0.75,right,PLUS Fall,heart,plus,1
41514,3,0,8.45722103118896,44,left,0.589,mixed test,0.75,left,PLUS Fall,heart,plus,1
41514,3,0,8.45722103118896,51,right,0.446,mixed test,0.75,right,PLUS Fall,heart,plus,1
41514,3,0,8.45722103118896,53,left,0.586,mixed test,0.75,left,PLUS Fall,heart,plus,1
41515,3,0,8.70910358428955,11,left,0.54,hearts test,0.75,left,PLUS Fall,heart,plus,1
41515,3,0,8.70910358428955,12,left,0.047,hearts test,0.75,right,PLUS Fall,heart,plus,0
41515,3,0,8.70910358428955,17,left,0.519,hearts test,0.75,left,PLUS Fall,heart,plus,1
41515,3,0,8.70910358428955,48,right,0.715,mixed test,0.75,left,PLUS Fall,heart,plus,0
41515,3,0,8.70910358428955,53,left,0.669,mixed test,0.75,left,PLUS Fall,heart,plus,1
41516,3,0,9.28952789306641,11,left,0.418,hearts test,0.75,left,PLUS Fall,heart,plus,1
41516,3,0,9.28952789306641,13,right,0.561,hearts test,0.75,right,PLUS Fall,heart,plus,1
41516,3,0,9.28952789306641,15,right,0.563,hearts test,0.75,right,PLUS Fall,heart,plus,1
41516,3,0,9.28952789306641,16,right,0.678,hearts test,0.75,right,PLUS Fall,heart,plus,1
41516,3,0,9.28952789306641,19,right,0.423,hearts test,0.75,left,PLUS Fall,heart,plus,0
41516,3,0,9.28952789306641,42,right,0.557,mixed test,0.75,right,PLUS Fall,heart,plus,1
41516,3,0,9.28952789306641,51,left,0.686,mixed test,0.75,right,PLUS Fall,heart,plus,0
41516,3,0,9.28952789306641,53,left,0.679,mixed test,0.75,left,PLUS Fall,heart,plus,1
41516,3,0,9.28952789306641,64,left,0.438,mixed test,0.75,left,PLUS Fall,heart,plus,1
41518,3,1,9.04312133789062,16,right,0.405,hearts test,0.75,right,PLUS Fall,heart,plus,1
41518,3,1,9.04312133789062,18,left,0.482,hearts test,0.75,left,PLUS Fall,heart,plus,1
41518,3,1,9.04312133789062,19,left,0.505,hearts test,0.75,left,PLUS Fall,heart,plus,1
41519,3,0,8.45722103118896,19,left,0.616,hearts test,0.75,left,PLUS Fall,heart,plus,1
41521,3,0,8.54209423065186,18,left,0.606,hearts test,0.75,left,PLUS Fall,heart,plus,1
41522,3,1,8.87611198425293,51,right,0.546,mixed test,0.75,right,PLUS Fall,heart,plus,1
41522,3,1,8.87611198425293,69,left,0.44,mixed test,0.75,right,PLUS Fall,heart,plus,0
41523,3,0,8.87611198425293,20,right,0.52,hearts test,0.75,right,PLUS Fall,heart,plus,1
41523,3,0,8.87611198425293,62,right,0.72,mixed test,0.75,right,PLUS Fall,heart,plus,1
41601,5,1,11.0444898605347,10,left,0.437,hearts test,0.75,left,PLUS Fall,heart,plus,1
41601,5,1,11.0444898605347,15,right,0.457,hearts test,0.75,right,PLUS Fall,heart,plus,1
41601,5,1,11.0444898605347,48,right,0.6,mixed test,0.75,left,PLUS Fall,heart,plus,0
41601,5,1,11.0444898605347,70,right,0.601,mixed test,0.75,right,PLUS Fall,heart,plus,1
41602,5,1,10.9623546600342,70,right,0.593,mixed test,0.75,right,PLUS Fall,heart,plus,1
41603,5,0,10.8774814605713,15,right,0.383,hearts test,0.75,right,PLUS Fall,heart,plus,1
41603,5,0,10.8774814605713,17,left,0.511,hearts test,0.75,left,PLUS Fall,heart,plus,1
41603,5,0,10.8774814605713,19,left,0.553,hearts test,0.75,left,PLUS Fall,heart,plus,1
41603,5,0,10.8774814605713,43,right,0.748,mixed test,0.75,right,PLUS Fall,heart,plus,1
41604,5,1,10.7953453063965,16,right,0.721,hearts test,0.75,right,PLUS Fall,heart,plus,1
41604,5,1,10.7953453063965,60,right,0.702,mixed test,0.75,right,PLUS Fall,heart,plus,1
41604,5,1,10.7953453063965,65,left,0.589,mixed test,0.75,left,PLUS Fall,heart,plus,1
41604,5,1,10.7953453063965,69,right,0.501,mixed test,0.75,right,PLUS Fall,heart,plus,1
41606,5,0,10.8774814605713,10,left,0.377,hearts test,0.75,left,PLUS Fall,heart,plus,1
41606,5,0,10.8774814605713,11,left,0.437,hearts test,0.75,left,PLUS Fall,heart,plus,1
41606,5,0,10.8774814605713,14,left,0.401,hearts test,0.75,left,PLUS Fall,heart,plus,1
41606,5,0,10.8774814605713,19,left,0.377,hearts test,0.75,left,PLUS Fall,heart,plus,1
41606,5,0,10.8774814605713,43,right,0.644,mixed test,0.75,right,PLUS Fall,heart,plus,1
41606,5,0,10.8774814605713,69,right,0.743,mixed test,0.75,right,PLUS Fall,heart,plus,1
41607,5,0,10.8711252212524,18,left,0.491,hearts test,0.75,left,PLUS Fall,heart,plus,1
41607,5,0,10.8711252212524,42,right,0.489,mixed test,0.75,right,PLUS Fall,heart,plus,1
41607,5,0,10.8711252212524,60,right,0.73,mixed test,0.75,right,PLUS Fall,heart,plus,1
41607,5,0,10.8711252212524,62,right,0.736,mixed test,0.75,right,PLUS Fall,heart,plus,1
41609,5,0,11.0444898605347,9,right,0.513,hearts test,0.75,right,PLUS Fall,heart,plus,1
41609,5,0,11.0444898605347,11,left,0.525,hearts test,0.75,left,PLUS Fall,heart,plus,1
41609,5,0,11.0444898605347,15,right,0.402,hearts test,0.75,right,PLUS Fall,heart,plus,1
41609,5,0,11.0444898605347,16,right,0.526,hearts test,0.75,right,PLUS Fall,heart,plus,1
41609,5,0,11.0444898605347,53,left,0.609,mixed test,0.75,left,PLUS Fall,heart,plus,1
41609,5,0,11.0444898605347,65,left,0.635,mixed test,0.75,left,PLUS Fall,heart,plus,1
41610,5,1,10.6255989074707,12,right,0.404,hearts test,0.75,right,PLUS Fall,heart,plus,1
41610,5,1,10.6255989074707,17,left,0.619,hearts test,0.75,left,PLUS Fall,heart,plus,1
41610,5,1,10.6255989074707,20,right,0.485,hearts test,0.75,right,PLUS Fall,heart,plus,1
41610,5,1,10.6255989074707,42,right,0.489,mixed test,0.75,right,PLUS Fall,heart,plus,1
41612,5,0,10.7953453063965,18,left,0.458,hearts test,0.75,left,PLUS Fall,heart,plus,1
41612,5,0,10.7953453063965,19,left,0.464,hearts test,0.75,left,PLUS Fall,heart,plus,1
41612,5,0,10.7953453063965,42,right,0.505,mixed test,0.75,right,PLUS Fall,heart,plus,1
41613,5,0,10.9623546600342,51,right,0.712,mixed test,0.75,right,PLUS Fall,heart,plus,1
41613,5,0,10.9623546600342,52,left,0.629,mixed test,0.75,left,PLUS Fall,heart,plus,1
41613,5,0,10.9623546600342,60,right,0.648,mixed test,0.75,right,PLUS Fall,heart,plus,1
41613,5,0,10.9623546600342,62,right,0.59,mixed test,0.75,right,PLUS Fall,heart,plus,1
41613,5,0,10.9623546600342,65,left,0.592,mixed test,0.75,left,PLUS Fall,heart,plus,1
41613,5,0,10.9623546600342,70,right,0.602,mixed test,0.75,right,PLUS Fall,heart,plus,1
41614,5,0,10.3764543533325,69,right,0.674,mixed test,0.75,right,PLUS Fall,heart,plus,1
41616,5,0,11.2908964157104,10,left,0.399,hearts test,0.75,left,PLUS Fall,heart,plus,1
41616,5,0,11.2908964157104,14,left,0.419,hearts test,0.75,left,PLUS Fall,heart,plus,1
41616,5,0,11.2908964157104,19,left,0.478,hearts test,0.75,left,PLUS Fall,heart,plus,1
41616,5,0,11.2908964157104,42,right,0.499,mixed test,0.75,right,PLUS Fall,heart,plus,1
41616,5,0,11.2908964157104,43,left,0.536,mixed test,0.75,right,PLUS Fall,heart,plus,0
41616,5,0,11.2908964157104,48,left,0.681,mixed test,0.75,left,PLUS Fall,heart,plus,1
41616,5,0,11.2908964157104,69,right,0.583,mixed test,0.75,right,PLUS Fall,heart,plus,1
41617,5,1,10.7953453063965,19,left,0.59,hearts test,0.75,left,PLUS Fall,heart,plus,1
41618,5,1,11.0444898605347,12,right,0.505,hearts test,0.75,right,PLUS Fall,heart,plus,1
41618,5,1,11.0444898605347,55,right,0.716,mixed test,0.75,right,PLUS Fall,heart,plus,1
41619,5,1,10.9623546600342,11,left,0.572,hearts test,0.75,left,PLUS Fall,heart,plus,1
41619,5,1,10.9623546600342,15,right,0.472,hearts test,0.75,right,PLUS Fall,heart,plus,1
41619,5,1,10.9623546600342,18,left,0.513,hearts test,0.75,left,PLUS Fall,heart,plus,1
41619,5,1,10.9623546600342,43,right,0.732,mixed test,0.75,right,PLUS Fall,heart,plus,1
41619,5,1,10.9623546600342,51,left,0.533,mixed test,0.75,right,PLUS Fall,heart,plus,0
41620,5,0,10.7104721069336,12,right,0.321,hearts test,0.75,right,PLUS Fall,heart,plus,1
41620,5,0,10.7104721069336,64,right,0.703,mixed test,0.75,left,PLUS Fall,heart,plus,0
41621,5,0,10.3764543533325,9,right,0.428,hearts test,0.75,right,PLUS Fall,heart,plus,1
41621,5,0,10.3764543533325,17,left,0.528,hearts test,0.75,left,PLUS Fall,heart,plus,1
41621,5,0,10.3764543533325,42,right,0.472,mixed test,0.75,right,PLUS Fall,heart,plus,1
41621,5,0,10.3764543533325,43,right,0.508,mixed test,0.75,right,PLUS Fall,heart,plus,1
41621,5,0,10.3764543533325,70,right,0.596,mixed test,0.75,right,PLUS Fall,heart,plus,1
41622,5,0,11.2908964157104,10,left,0.43,hearts test,0.75,left,PLUS Fall,heart,plus,1
41622,5,0,11.2908964157104,11,left,0.479,hearts test,0.75,left,PLUS Fall,heart,plus,1
41622,5,0,11.2908964157104,52,left,0.688,mixed test,0.75,left,PLUS Fall,heart,plus,1
41623,5,1,10.7104721069336,12,right,0.527,hearts test,0.75,right,PLUS Fall,heart,plus,1
41623,5,1,10.7104721069336,52,left,0.593,mixed test,0.75,left,PLUS Fall,heart,plus,1
41623,5,1,10.7104721069336,64,right,0.599,mixed test,0.75,left,PLUS Fall,heart,plus,0
41624,5,0,10.9623546600342,62,right,0.576,mixed test,0.75,right,PLUS Fall,heart,plus,1
41624,5,0,10.9623546600342,70,right,0.49,mixed test,0.75,right,PLUS Fall,heart,plus,1
41626,5,1,10.8711252212524,17,left,0.529,hearts test,0.75,left,PLUS Fall,heart,plus,1
41626,5,1,10.8711252212524,19,left,0.711,hearts test,0.75,left,PLUS Fall,heart,plus,1
41626,5,1,10.8711252212524,43,right,0.621,mixed test,0.75,right,PLUS Fall,heart,plus,1
41626,5,1,10.8711252212524,44,left,0.73,mixed test,0.75,left,PLUS Fall,heart,plus,1
41626,5,1,10.8711252212524,70,right,0.603,mixed test,0.75,right,PLUS Fall,heart,plus,1
41627,5,0,10.7104721069336,12,right,0.471,hearts test,0.75,right,PLUS Fall,heart,plus,1
41628,5,0,10.5434637069702,19,left,0.631,hearts test,0.75,left,PLUS Fall,heart,plus,1
41629,5,1,11.2908964157104,11,left,0.466,hearts test,0.75,left,PLUS Fall,heart,plus,1
41629,5,1,11.2908964157104,42,right,0.514,mixed test,0.75,right,PLUS Fall,heart,plus,1
41629,5,1,11.2908964157104,48,left,0.589,mixed test,0.75,left,PLUS Fall,heart,plus,1
41629,5,1,11.2908964157104,59,left,0.692,mixed test,0.75,left,PLUS Fall,heart,plus,1
41629,5,1,11.2908964157104,62,right,0.697,mixed test,0.75,right,PLUS Fall,heart,plus,1
41630,5,1,11.2060232162476,20,right,0.517,hearts test,0.75,right,PLUS Fall,heart,plus,1
41630,5,1,11.2060232162476,64,right,0.588,mixed test,0.75,left,PLUS Fall,heart,plus,0
41630,5,1,11.2060232162476,70,right,0.624,mixed test,0.75,right,PLUS Fall,heart,plus,1
42512,3,0,9.54141044616699,10,left,0.485,hearts test,0.75,left,PLUS Fall,heart,plus,1
42512,3,0,9.54141044616699,14,left,0.478,hearts test,0.75,left,PLUS Fall,heart,plus,1
42512,3,0,9.54141044616699,16,right,0.447,hearts test,0.75,right,PLUS Fall,heart,plus,1
42512,3,0,9.54141044616699,20,right,0.381,hearts test,0.75,right,PLUS Fall,heart,plus,1
42512,3,0,9.54141044616699,53,left,0.635,mixed test,0.75,left,PLUS Fall,heart,plus,1
42512,3,0,9.54141044616699,70,right,0.637,mixed test,0.75,right,PLUS Fall,heart,plus,1
42513,3,1,9.54141044616699,14,left,0.527,hearts test,0.75,left,PLUS Fall,heart,plus,1
42513,3,1,9.54141044616699,59,left,0.612,mixed test,0.75,left,PLUS Fall,heart,plus,1
42513,3,1,9.54141044616699,65,right,0.721,mixed test,0.75,left,PLUS Fall,heart,plus,0
42514,3,1,9.20465469360352,20,right,0.497,hearts test,0.75,right,PLUS Fall,heart,plus,1
42515,3,1,9.3744010925293,11,left,0.573,hearts test,0.75,left,PLUS Fall,heart,plus,1
42515,3,1,9.3744010925293,15,right,0.545,hearts test,0.75,right,PLUS Fall,heart,plus,1
42515,3,1,9.3744010925293,43,left,0.688,mixed test,0.75,right,PLUS Fall,heart,plus,0
42515,3,1,9.3744010925293,60,right,0.493,mixed test,0.75,right,PLUS Fall,heart,plus,1
42515,3,1,9.3744010925293,62,right,0.471,mixed test,0.75,right,PLUS Fall,heart,plus,1
42516,3,1,9.3744010925293,12,right,0.392,hearts test,0.75,right,PLUS Fall,heart,plus,1
42516,3,1,9.3744010925293,48,left,0.677,mixed test,0.75,left,PLUS Fall,heart,plus,1
42517,3,1,8.45722103118896,19,left,0.548,hearts test,0.75,left,PLUS Fall,heart,plus,1
42517,3,1,8.45722103118896,52,left,0.448,mixed test,0.75,left,PLUS Fall,heart,plus,1
42517,3,1,8.45722103118896,60,left,0.623,mixed test,0.75,right,PLUS Fall,heart,plus,0
42517,3,1,8.45722103118896,62,right,0.704,mixed test,0.75,right,PLUS Fall,heart,plus,1
42518,3,1,9.20465469360352,12,right,0.388,hearts test,0.75,right,PLUS Fall,heart,plus,1
42518,3,1,9.20465469360352,55,left,0.657,mixed test,0.75,right,PLUS Fall,heart,plus,0
42518,3,1,9.20465469360352,64,right,0.638,mixed test,0.75,left,PLUS Fall,heart,plus,0
42518,3,1,9.20465469360352,70,right,0,mixed test,0.75,right,PLUS Fall,heart,plus,1
42519,3,0,8.79397678375244,11,left,0.587,hearts test,0.75,left,PLUS Fall,heart,plus,1
42519,3,0,8.79397678375244,12,right,0.575,hearts test,0.75,right,PLUS Fall,heart,plus,1
42519,3,0,8.79397678375244,14,left,0.495,hearts test,0.75,left,PLUS Fall,heart,plus,1
42520,3,1,8.96098518371582,9,right,0.621,hearts test,0.75,right,PLUS Fall,heart,plus,1
42520,3,1,8.96098518371582,11,left,0.598,hearts test,0.75,left,PLUS Fall,heart,plus,1
42520,3,1,8.96098518371582,16,right,0.538,hearts test,0.75,right,PLUS Fall,heart,plus,1
42520,3,1,8.96098518371582,55,right,0.698,mixed test,0.75,right,PLUS Fall,heart,plus,1
42521,3,0,8.54209423065186,18,left,0.532,hearts test,0.75,left,PLUS Fall,heart,plus,1
42521,3,0,8.54209423065186,44,right,0.642,mixed test,0.75,left,PLUS Fall,heart,plus,0
42522,3,1,8.54209423065186,16,right,0.682,hearts test,0.75,right,PLUS Fall,heart,plus,1
42522,3,1,8.54209423065186,52,left,0.719,mixed test,0.75,left,PLUS Fall,heart,plus,1
42523,3,0,8.45722103118896,18,left,0.531,hearts test,0.75,left,PLUS Fall,heart,plus,1
42523,3,0,8.45722103118896,19,left,0.615,hearts test,0.75,left,PLUS Fall,heart,plus,1
42523,3,0,8.45722103118896,59,left,0.5,mixed test,0.75,left,PLUS Fall,heart,plus,1
51201,4,1,9.45653629302979,13,right,0.518,hearts test,0.75,right,PLUS Fall,heart,plus,1
51202,4,1,10.2067079544067,16,right,0.434,hearts test,0.75,right,PLUS Fall,heart,plus,1
51202,4,1,10.2067079544067,19,left,0.47,hearts test,0.75,left,PLUS Fall,heart,plus,1
51202,4,1,10.2067079544067,53,left,0.606,mixed test,0.75,left,PLUS Fall,heart,plus,1
51203,4,0,9.79329204559326,12,right,0.567,hearts test,0.75,right,PLUS Fall,heart,plus,1
51203,4,0,9.79329204559326,70,right,0.531,mixed test,0.75,right,PLUS Fall,heart,plus,1
51205,4,0,10.1273097991943,9,right,0.445,hearts test,0.75,right,PLUS Fall,heart,plus,1
51205,4,0,10.1273097991943,18,left,0.448,hearts test,0.75,left,PLUS Fall,heart,plus,1
51205,4,0,10.1273097991943,69,right,0.559,mixed test,0.75,right,PLUS Fall,heart,plus,1
51206,4,1,10.2915811538696,11,left,0.526,hearts test,0.75,left,PLUS Fall,heart,plus,1
51206,4,1,10.2915811538696,14,left,0.411,hearts test,0.75,left,PLUS Fall,heart,plus,1
51206,4,1,10.2915811538696,43,right,0.6,mixed test,0.75,right,PLUS Fall,heart,plus,1
51207,4,1,9.54141044616699,43,right,0.623,mixed test,0.75,right,PLUS Fall,heart,plus,1
51208,4,0,10.2915811538696,10,left,0.414,hearts test,0.75,left,PLUS Fall,heart,plus,1
51208,4,0,10.2915811538696,13,right,0.423,hearts test,0.75,right,PLUS Fall,heart,plus,1
51208,4,0,10.2915811538696,16,right,0.429,hearts test,0.75,right,PLUS Fall,heart,plus,1
51208,4,0,10.2915811538696,18,left,0.446,hearts test,0.75,left,PLUS Fall,heart,plus,1
51208,4,0,10.2915811538696,42,right,0.573,mixed test,0.75,right,PLUS Fall,heart,plus,1
51209,4,1,9.70841884613037,10,left,0.61,hearts test,0.75,left,PLUS Fall,heart,plus,1
51209,4,1,9.70841884613037,15,right,0.425,hearts test,0.75,right,PLUS Fall,heart,plus,1
51209,4,1,9.70841884613037,18,left,0.533,hearts test,0.75,left,PLUS Fall,heart,plus,1
51209,4,1,9.70841884613037,59,right,0.702,mixed test,0.75,left,PLUS Fall,heart,plus,0
51209,4,1,9.70841884613037,65,right,0.532,mixed test,0.75,left,PLUS Fall,heart,plus,0
51209,4,1,9.70841884613037,69,left,0.687,mixed test,0.75,right,PLUS Fall,heart,plus,0
51210,4,1,9.54141044616699,19,left,0.652,hearts test,0.75,left,PLUS Fall,heart,plus,1
51210,4,1,9.54141044616699,53,left,0.582,mixed test,0.75,left,PLUS Fall,heart,plus,1
51210,4,1,9.54141044616699,70,right,0.594,mixed test,0.75,right,PLUS Fall,heart,plus,1
51211,4,1,10.2067079544067,13,right,0.446,hearts test,0.75,right,PLUS Fall,heart,plus,1
51211,4,1,10.2067079544067,15,right,0.436,hearts test,0.75,right,PLUS Fall,heart,plus,1
51211,4,1,10.2067079544067,52,right,0.666,mixed test,0.75,left,PLUS Fall,heart,plus,0
51212,4,0,10.2067079544067,16,right,0.475,hearts test,0.75,right,PLUS Fall,heart,plus,1
51213,4,0,9.70841884613037,18,left,0.546,hearts test,0.75,left,PLUS Fall,heart,plus,1
51213,4,0,9.70841884613037,20,right,0.454,hearts test,0.75,right,PLUS Fall,heart,plus,1
51213,4,0,9.70841884613037,44,left,0.63,mixed test,0.75,left,PLUS Fall,heart,plus,1
51213,4,0,9.70841884613037,62,right,0.749,mixed test,0.75,right,PLUS Fall,heart,plus,1
51214,4,0,9.70841884613037,19,left,0.549,hearts test,0.75,left,PLUS Fall,heart,plus,1
51214,4,0,9.70841884613037,20,right,0.554,hearts test,0.75,right,PLUS Fall,heart,plus,1
51214,4,0,9.70841884613037,52,left,0.615,mixed test,0.75,left,PLUS Fall,heart,plus,1
51214,4,0,9.70841884613037,55,right,0.739,mixed test,0.75,right,PLUS Fall,heart,plus,1
51216,4,0,9,12,right,0.421,hearts test,0.75,right,PLUS Fall,heart,plus,1
51216,4,0,9,62,left,0.624,mixed test,0.75,right,PLUS Fall,heart,plus,0
51217,4,0,9.87542819976807,11,left,0.633,hearts test,0.75,left,PLUS Fall,heart,plus,1
51217,4,0,9.87542819976807,15,right,0.654,hearts test,0.75,right,PLUS Fall,heart,plus,1
51217,4,0,9.87542819976807,19,left,0.736,hearts test,0.75,left,PLUS Fall,heart,plus,1
51217,4,0,9.87542819976807,43,right,0.596,mixed test,0.75,right,PLUS Fall,heart,plus,1
51217,4,0,9.87542819976807,60,right,0.562,mixed test,0.75,right,PLUS Fall,heart,plus,1
51217,4,0,9.87542819976807,64,right,0.637,mixed test,0.75,left,PLUS Fall,heart,plus,0
51218,4,0,9.79329204559326,11,left,0.433,hearts test,0.75,left,PLUS Fall,heart,plus,1
51218,4,0,9.79329204559326,13,right,0.478,hearts test,0.75,right,PLUS Fall,heart,plus,1
51218,4,0,9.79329204559326,20,right,0.503,hearts test,0.75,right,PLUS Fall,heart,plus,1
51218,4,0,9.79329204559326,62,right,0.688,mixed test,0.75,right,PLUS Fall,heart,plus,1
51220,4,1,9.87542819976807,9,right,0.461,hearts test,0.75,right,PLUS Fall,heart,plus,1
51220,4,1,9.87542819976807,16,right,0.589,hearts test,0.75,right,PLUS Fall,heart,plus,1
51220,4,1,9.87542819976807,20,right,0.423,hearts test,0.75,right,PLUS Fall,heart,plus,1
51221,4,0,9.87542819976807,10,left,0.428,hearts test,0.75,left,PLUS Fall,heart,plus,1
51221,4,0,9.87542819976807,13,right,0.391,hearts test,0.75,right,PLUS Fall,heart,plus,1
51221,4,0,9.87542819976807,52,left,0.63,mixed test,0.75,left,PLUS Fall,heart,plus,1
51221,4,0,9.87542819976807,62,right,0.737,mixed test,0.75,right,PLUS Fall,heart,plus,1
51221,4,0,9.87542819976807,65,left,0.577,mixed test,0.75,left,PLUS Fall,heart,plus,1
51222,4,1,9.79329204559326,10,left,0.37,hearts test,0.75,left,PLUS Fall,heart,plus,1
51222,4,1,9.79329204559326,12,right,0.325,hearts test,0.75,right,PLUS Fall,heart,plus,1
51222,4,1,9.79329204559326,20,right,0.403,hearts test,0.75,right,PLUS Fall,heart,plus,1
51222,4,1,9.79329204559326,51,left,0.56,mixed test,0.75,right,PLUS Fall,heart,plus,0
51222,4,1,9.79329204559326,60,right,0.598,mixed test,0.75,right,PLUS Fall,heart,plus,1
51223,4,0,9.3744010925293,20,right,0.518,hearts test,0.75,right,PLUS Fall,heart,plus,1
51223,4,0,9.3744010925293,53,left,0.749,mixed test,0.75,left,PLUS Fall,heart,plus,1
51224,4,1,9.3744010925293,9,right,0.425,hearts test,0.75,right,PLUS Fall,heart,plus,1
51224,4,1,9.3744010925293,64,right,0.407,mixed test,0.75,left,PLUS Fall,heart,plus,0
51224,4,1,9.3744010925293,69,right,0.684,mixed test,0.75,right,PLUS Fall,heart,plus,1
51225,4,1,9.87542819976807,51,left,0.69,mixed test,0.75,right,PLUS Fall,heart,plus,0
51226,4,1,9.87542819976807,42,right,0.681,mixed test,0.75,right,PLUS Fall,heart,plus,1
51227,4,1,9.79329204559326,9,right,0.643,hearts test,0.75,right,PLUS Fall,heart,plus,1
51227,4,1,9.79329204559326,10,left,0.498,hearts test,0.75,left,PLUS Fall,heart,plus,1
51227,4,1,9.79329204559326,15,right,0.558,hearts test,0.75,right,PLUS Fall,heart,plus,1
51228,4,0,9.70841884613037,12,right,0.497,hearts test,0.75,right,PLUS Fall,heart,plus,1
51228,4,0,9.70841884613037,43,right,0.668,mixed test,0.75,right,PLUS Fall,heart,plus,1
51228,4,0,9.70841884613037,48,right,0.642,mixed test,0.75,left,PLUS Fall,heart,plus,0
51229,4,1,9.96030139923096,11,left,0.492,hearts test,0.75,left,PLUS Fall,heart,plus,1
51229,4,1,9.96030139923096,18,left,0.451,hearts test,0.75,left,PLUS Fall,heart,plus,1
51229,4,1,9.96030139923096,44,left,0.73,mixed test,0.75,left,PLUS Fall,heart,plus,1
51229,4,1,9.96030139923096,55,right,0.596,mixed test,0.75,right,PLUS Fall,heart,plus,1
51229,4,1,9.96030139923096,64,left,0.621,mixed test,0.75,left,PLUS Fall,heart,plus,1
51230,4,1,9.82797145843506,16,right,0.542,hearts test,0.75,right,PLUS Fall,heart,plus,1
51230,4,1,9.82797145843506,55,right,0.033,mixed test,0.75,right,PLUS Fall,heart,plus,1
51230,4,1,9.82797145843506,60,left,0.699,mixed test,0.75,right,PLUS Fall,heart,plus,0
51231,4,1,9.45653629302979,15,right,0.39,hearts test,0.75,right,PLUS Fall,heart,plus,1
51231,4,1,9.45653629302979,43,right,0.608,mixed test,0.75,right,PLUS Fall,heart,plus,1
51231,4,1,9.45653629302979,69,right,0.727,mixed test,0.75,right,PLUS Fall,heart,plus,1
51901,4,1,10.2915811538696,10,left,0.445,hearts test,0.75,left,PLUS Fall,heart,plus,1
51901,4,1,10.2915811538696,52,left,0.704,mixed test,0.75,left,PLUS Fall,heart,plus,1
51902,4,1,10.1273097991943,13,right,0.54,hearts test,0.75,right,PLUS Fall,heart,plus,1
51903,4,1,10.0424365997314,9,right,0.47,hearts test,0.75,right,PLUS Fall,heart,plus,1
51903,4,1,10.0424365997314,12,right,0.434,hearts test,0.75,right,PLUS Fall,heart,plus,1
51903,4,1,10.0424365997314,17,left,0.553,hearts test,0.75,left,PLUS Fall,heart,plus,1
51903,4,1,10.0424365997314,20,right,0.392,hearts test,0.75,right,PLUS Fall,heart,plus,1
51904,4,1,9.54141044616699,11,left,0.544,hearts test,0.75,left,PLUS Fall,heart,plus,1
51904,4,1,9.54141044616699,52,left,0.746,mixed test,0.75,left,PLUS Fall,heart,plus,1
51904,4,1,9.54141044616699,64,right,0.655,mixed test,0.75,left,PLUS Fall,heart,plus,0
51905,4,1,9.96030139923096,18,left,0.621,hearts test,0.75,left,PLUS Fall,heart,plus,1
51905,4,1,9.96030139923096,20,right,0.528,hearts test,0.75,right,PLUS Fall,heart,plus,1
51905,4,1,9.96030139923096,48,left,0.582,mixed test,0.75,left,PLUS Fall,heart,plus,1
51906,4,0,9.96030139923096,16,right,0.559,hearts test,0.75,right,PLUS Fall,heart,plus,1
51906,4,0,9.96030139923096,53,left,0.705,mixed test,0.75,left,PLUS Fall,heart,plus,1
51906,4,0,9.96030139923096,55,left,0.655,mixed test,0.75,right,PLUS Fall,heart,plus,0
51906,4,0,9.96030139923096,62,right,0.436,mixed test,0.75,right,PLUS Fall,heart,plus,1
51906,4,0,9.96030139923096,64,right,0.566,mixed test,0.75,left,PLUS Fall,heart,plus,0
51906,4,0,9.96030139923096,69,right,0.542,mixed test,0.75,right,PLUS Fall,heart,plus,1
51907,4,0,10.3764543533325,15,right,0.373,hearts test,0.75,right,PLUS Fall,heart,plus,1
51908,4,0,10.0597133636475,48,left,0.642,mixed test,0.75,left,PLUS Fall,heart,plus,1
51908,4,0,10.0597133636475,60,right,0.545,mixed test,0.75,right,PLUS Fall,heart,plus,1
51909,4,1,10.0424365997314,14,left,0.409,hearts test,0.75,left,PLUS Fall,heart,plus,1
51910,4,0,10.3764543533325,19,left,0.589,hearts test,0.75,left,PLUS Fall,heart,plus,1
51911,4,0,10.3764543533325,16,right,0.583,hearts test,0.75,right,PLUS Fall,heart,plus,1
51911,4,0,10.3764543533325,18,left,0.613,hearts test,0.75,left,PLUS Fall,heart,plus,1
51911,4,0,10.3764543533325,48,left,0.679,mixed test,0.75,left,PLUS Fall,heart,plus,1
51911,4,0,10.3764543533325,53,left,0.678,mixed test,0.75,left,PLUS Fall,heart,plus,1
51911,4,0,10.3764543533325,69,right,0.67,mixed test,0.75,right,PLUS Fall,heart,plus,1
51911,4,0,10.3764543533325,70,right,0.642,mixed test,0.75,right,PLUS Fall,heart,plus,1
51912,4,1,9.70841884613037,12,right,0.747,hearts test,0.75,right,PLUS Fall,heart,plus,1
51912,4,1,9.70841884613037,13,right,0.599,hearts test,0.75,right,PLUS Fall,heart,plus,1
51912,4,1,9.70841884613037,53,left,0.657,mixed test,0.75,left,PLUS Fall,heart,plus,1
51912,4,1,9.70841884613037,70,right,0.725,mixed test,0.75,right,PLUS Fall,heart,plus,1
51913,4,0,10.0424365997314,10,left,0.468,hearts test,0.75,left,PLUS Fall,heart,plus,1
51913,4,0,10.0424365997314,44,left,0.72,mixed test,0.75,left,PLUS Fall,heart,plus,1
51913,4,0,10.0424365997314,52,right,0.571,mixed test,0.75,left,PLUS Fall,heart,plus,0
51913,4,0,10.0424365997314,68,left,0.525,mixed test,0.75,left,PLUS Fall,heart,plus,1
51913,4,0,10.0424365997314,69,right,0.49,mixed test,0.75,right,PLUS Fall,heart,plus,1
51914,4,0,9.87542819976807,13,right,0.566,hearts test,0.75,right,PLUS Fall,heart,plus,1
51914,4,0,9.87542819976807,15,right,0.477,hearts test,0.75,right,PLUS Fall,heart,plus,1
51914,4,0,9.87542819976807,16,right,0.628,hearts test,0.75,right,PLUS Fall,heart,plus,1
51914,4,0,9.87542819976807,55,left,0.08,mixed test,0.75,right,PLUS Fall,heart,plus,0
51915,4,1,10.0424365997314,42,left,0.684,mixed test,0.75,right,PLUS Fall,heart,plus,0
51915,4,1,10.0424365997314,69,left,0.669,mixed test,0.75,right,PLUS Fall,heart,plus,0
51916,4,0,10.5434637069702,12,right,0.484,hearts test,0.75,right,PLUS Fall,heart,plus,1
51916,4,0,10.5434637069702,17,left,0.748,hearts test,0.75,left,PLUS Fall,heart,plus,1
51917,4,0,10,9,right,0.376,hearts test,0.75,right,PLUS Fall,heart,plus,1
51917,4,0,10,10,left,0.556,hearts test,0.75,left,PLUS Fall,heart,plus,1
51917,4,0,10,16,right,0.45,hearts test,0.75,right,PLUS Fall,heart,plus,1
51917,4,0,10,53,left,0.513,mixed test,0.75,left,PLUS Fall,heart,plus,1
51917,4,0,10,68,left,0.665,mixed test,0.75,left,PLUS Fall,heart,plus,1
51917,4,0,10,70,right,0.533,mixed test,0.75,right,PLUS Fall,heart,plus,1
51918,4,1,10.2067079544067,11,left,0.501,hearts test,0.75,left,PLUS Fall,heart,plus,1
51918,4,1,10.2067079544067,12,right,0.403,hearts test,0.75,right,PLUS Fall,heart,plus,1
51918,4,1,10.2067079544067,16,right,0.479,hearts test,0.75,right,PLUS Fall,heart,plus,1
51918,4,1,10.2067079544067,18,right,0.4,hearts test,0.75,left,PLUS Fall,heart,plus,0
51918,4,1,10.2067079544067,48,left,0.744,mixed test,0.75,left,PLUS Fall,heart,plus,1
51918,4,1,10.2067079544067,68,left,0.528,mixed test,0.75,left,PLUS Fall,heart,plus,1
51919,4,1,9.54141044616699,12,right,0.585,hearts test,0.75,right,PLUS Fall,heart,plus,1
51919,4,1,9.54141044616699,13,right,0.519,hearts test,0.75,right,PLUS Fall,heart,plus,1
51919,4,1,9.54141044616699,14,left,0.596,hearts test,0.75,left,PLUS Fall,heart,plus,1
51919,4,1,9.54141044616699,19,left,0.74,hearts test,0.75,left,PLUS Fall,heart,plus,1
51920,4,1,10,60,right,0.532,mixed test,0.75,right,PLUS Fall,heart,plus,1
51921,4,0,10.0597133636475,10,left,0.42,hearts test,0.75,left,PLUS Fall,heart,plus,1
51924,4,0,9.96030139923096,9,right,0.558,hearts test,0.75,right,PLUS Fall,heart,plus,1
51924,4,0,9.96030139923096,14,left,0.53,hearts test,0.75,left,PLUS Fall,heart,plus,1
51924,4,0,9.96030139923096,52,left,0.746,mixed test,0.75,left,PLUS Fall,heart,plus,1
51925,4,0,10.1273097991943,13,right,0.481,hearts test,0.75,right,PLUS Fall,heart,plus,1
51925,4,0,10.1273097991943,18,left,0.524,hearts test,0.75,left,PLUS Fall,heart,plus,1
51925,4,0,10.1273097991943,55,left,0.636,mixed test,0.75,right,PLUS Fall,heart,plus,0
51926,4,0,9.3744010925293,12,right,0.404,hearts test,0.75,right,PLUS Fall,heart,plus,1
51926,4,0,9.3744010925293,70,right,0.624,mixed test,0.75,right,PLUS Fall,heart,plus,1
51927,4,0,10.3764543533325,9,right,0.462,hearts test,0.75,right,PLUS Fall,heart,plus,1
51927,4,0,10.3764543533325,51,right,0.693,mixed test,0.75,right,PLUS Fall,heart,plus,1
51927,4,0,10.3764543533325,55,right,0.731,mixed test,0.75,right,PLUS Fall,heart,plus,1
51927,4,0,10.3764543533325,68,left,0.638,mixed test,0.75,left,PLUS Fall,heart,plus,1
51928,4,0,9.62354564666748,11,left,0.454,hearts test,0.75,left,PLUS Fall,heart,plus,1
51928,4,0,9.62354564666748,13,right,0.493,hearts test,0.75,right,PLUS Fall,heart,plus,1
51928,4,0,9.62354564666748,18,left,0.472,hearts test,0.75,left,PLUS Fall,heart,plus,1
51928,4,0,9.62354564666748,60,left,0.607,mixed test,0.75,right,PLUS Fall,heart,plus,0
51929,4,0,10.3764543533325,12,right,0.341,hearts test,0.75,right,PLUS Fall,heart,plus,1
51929,4,0,10.3764543533325,20,right,0.494,hearts test,0.75,right,PLUS Fall,heart,plus,1
51929,4,0,10.3764543533325,53,left,0.554,mixed test,0.75,left,PLUS Fall,heart,plus,1
51929,4,0,10.3764543533325,64,left,0.593,mixed test,0.75,left,PLUS Fall,heart,plus,1
51930,4,1,9.87542819976807,42,right,0.682,mixed test,0.75,right,PLUS Fall,heart,plus,1
51932,4,1,9.54141044616699,13,right,0.492,hearts test,0.75,right,PLUS Fall,heart,plus,1
60201,5,0,10.7186861038208,9,right,0.536,hearts test,0.75,right,PLUS Fall,heart,plus,1
60201,5,0,10.7186861038208,70,right,0.557,mixed test,0.75,right,PLUS Fall,heart,plus,1
60202,5,0,10.9897327423096,42,right,0.525,mixed test,0.75,right,PLUS Fall,heart,plus,1
60202,5,0,10.9897327423096,55,right,0.689,mixed test,0.75,right,PLUS Fall,heart,plus,1
60202,5,0,10.9897327423096,69,right,0.593,mixed test,0.75,right,PLUS Fall,heart,plus,1
60203,5,1,11.1348390579224,13,right,0.418,hearts test,0.75,right,PLUS Fall,heart,plus,1
60203,5,1,11.1348390579224,19,left,0.629,hearts test,0.75,left,PLUS Fall,heart,plus,1
60203,5,1,11.1348390579224,42,right,0.522,mixed test,0.75,right,PLUS Fall,heart,plus,1
60204,5,1,11.0636548995972,9,right,0.645,hearts test,0.75,right,PLUS Fall,heart,plus,1
60205,5,0,10.9377136230469,10,left,0.491,hearts test,0.75,left,PLUS Fall,heart,plus,1
60205,5,0,10.9377136230469,11,left,0.59,hearts test,0.75,left,PLUS Fall,heart,plus,1
60206,5,1,11.3566055297852,9,right,0.389,hearts test,0.75,right,PLUS Fall,heart,plus,1
60207,5,0,11.107460975647,18,left,0.596,hearts test,0.75,left,PLUS Fall,heart,plus,1
60208,4,1,11.3757696151733,69,right,0.564,mixed test,0.75,right,PLUS Fall,heart,plus,1
60208,4,1,11.3757696151733,70,right,0.527,mixed test,0.75,right,PLUS Fall,heart,plus,1
60209,5,0,11.1540040969849,9,right,0.45,hearts test,0.75,right,PLUS Fall,heart,plus,1
60209,5,0,11.1540040969849,16,right,0.448,hearts test,0.75,right,PLUS Fall,heart,plus,1
60209,5,0,11.1540040969849,18,left,0.447,hearts test,0.75,left,PLUS Fall,heart,plus,1
60209,5,0,11.1540040969849,55,left,0.425,mixed test,0.75,right,PLUS Fall,heart,plus,0
60209,5,0,11.1540040969849,60,right,0.588,mixed test,0.75,right,PLUS Fall,heart,plus,1
60209,5,0,11.1540040969849,68,left,0.618,mixed test,0.75,left,PLUS Fall,heart,plus,1
60210,5,1,10.43394947052,13,right,0.373,hearts test,0.75,right,PLUS Fall,heart,plus,1
60210,5,1,10.43394947052,51,right,0.648,mixed test,0.75,right,PLUS Fall,heart,plus,1
60210,5,1,10.43394947052,55,right,0.738,mixed test,0.75,right,PLUS Fall,heart,plus,1
60211,5,0,11.3347024917603,14,left,0.643,hearts test,0.75,left,PLUS Fall,heart,plus,1
60213,5,0,10.9842576980591,12,right,0.37,hearts test,0.75,right,PLUS Fall,heart,plus,1
60213,5,0,10.9842576980591,52,right,0.564,mixed test,0.75,left,PLUS Fall,heart,plus,0
60213,5,0,10.9842576980591,60,right,0.677,mixed test,0.75,right,PLUS Fall,heart,plus,1
60214,5,0,11.0663928985596,53,left,0.589,mixed test,0.75,left,PLUS Fall,heart,plus,1
60214,5,0,11.0663928985596,55,left,0.609,mixed test,0.75,right,PLUS Fall,heart,plus,0
60214,5,0,11.0663928985596,62,right,0.539,mixed test,0.75,right,PLUS Fall,heart,plus,1
60215,5,1,10.7104721069336,17,left,0.464,hearts test,0.75,left,PLUS Fall,heart,plus,1
60216,5,0,10.5434637069702,10,left,0.357,hearts test,0.75,left,PLUS Fall,heart,plus,1
60216,5,0,10.5434637069702,11,left,0.371,hearts test,0.75,left,PLUS Fall,heart,plus,1
60216,5,0,10.5434637069702,65,left,0.633,mixed test,0.75,left,PLUS Fall,heart,plus,1
60217,5,1,10.7734432220459,12,right,0.487,hearts test,0.75,right,PLUS Fall,heart,plus,1
60218,5,1,10.472279548645,11,left,0.583,hearts test,0.75,left,PLUS Fall,heart,plus,1
60218,5,1,10.472279548645,20,right,0.582,hearts test,0.75,right,PLUS Fall,heart,plus,1
60218,5,1,10.472279548645,44,left,0.625,mixed test,0.75,left,PLUS Fall,heart,plus,1
60218,5,1,10.472279548645,60,right,0.529,mixed test,0.75,right,PLUS Fall,heart,plus,1
60218,5,1,10.472279548645,65,left,0.656,mixed test,0.75,left,PLUS Fall,heart,plus,1
60221,5,0,10.4750175476074,10,left,0.576,hearts test,0.75,left,PLUS Fall,heart,plus,1
60222,5,1,10.7433261871338,13,right,0.356,hearts test,0.75,right,PLUS Fall,heart,plus,1
60222,5,1,10.7433261871338,15,right,0.369,hearts test,0.75,right,PLUS Fall,heart,plus,1
60222,5,1,10.7433261871338,44,left,0.653,mixed test,0.75,left,PLUS Fall,heart,plus,1
60223,5,1,12.2874746322632,62,right,0.652,mixed test,0.75,right,PLUS Fall,heart,plus,1
60223,5,1,12.2874746322632,64,left,0.652,mixed test,0.75,left,PLUS Fall,heart,plus,1
60224,5,1,11.4907598495483,64,right,0.506,mixed test,0.75,left,PLUS Fall,heart,plus,0
60224,5,1,11.4907598495483,65,left,0.684,mixed test,0.75,left,PLUS Fall,heart,plus,1
60225,5,0,11.2744693756104,12,right,0.333,hearts test,0.75,right,PLUS Fall,heart,plus,1
60225,5,0,11.2744693756104,15,right,0.354,hearts test,0.75,right,PLUS Fall,heart,plus,1
60225,5,0,11.2744693756104,17,left,0.356,hearts test,0.75,left,PLUS Fall,heart,plus,1
60225,5,0,11.2744693756104,19,left,0.387,hearts test,0.75,left,PLUS Fall,heart,plus,1
60225,5,0,11.2744693756104,51,right,0.614,mixed test,0.75,right,PLUS Fall,heart,plus,1
60225,5,0,11.2744693756104,64,left,0.713,mixed test,0.75,left,PLUS Fall,heart,plus,1
60225,5,0,11.2744693756104,70,right,0.6,mixed test,0.75,right,PLUS Fall,heart,plus,1
60301,3,0,8.93908309936523,16,right,0.538,hearts test,0.75,right,PLUS Fall,heart,plus,1
60301,3,0,8.93908309936523,18,left,0.521,hearts test,0.75,left,PLUS Fall,heart,plus,1
60303,3,1,8.59411334991455,9,right,0.504,hearts test,0.75,right,PLUS Fall,heart,plus,1
60303,3,1,8.59411334991455,12,right,0.44,hearts test,0.75,right,PLUS Fall,heart,plus,1
60303,3,1,8.59411334991455,43,right,0.661,mixed test,0.75,right,PLUS Fall,heart,plus,1
60303,3,1,8.59411334991455,52,left,0.594,mixed test,0.75,left,PLUS Fall,heart,plus,1
60303,3,1,8.59411334991455,53,left,0.617,mixed test,0.75,left,PLUS Fall,heart,plus,1
60303,3,1,8.59411334991455,64,right,0.006,mixed test,0.75,left,PLUS Fall,heart,plus,0
60304,3,1,8.53388118743896,11,left,0.562,hearts test,0.75,left,PLUS Fall,heart,plus,1
60304,3,1,8.53388118743896,14,left,0.412,hearts test,0.75,left,PLUS Fall,heart,plus,1
60304,3,1,8.53388118743896,16,right,0.435,hearts test,0.75,right,PLUS Fall,heart,plus,1
60304,3,1,8.53388118743896,17,left,0.369,hearts test,0.75,left,PLUS Fall,heart,plus,1
60304,3,1,8.53388118743896,18,left,0.439,hearts test,0.75,left,PLUS Fall,heart,plus,1
60305,3,1,8.62423038482666,14,left,0.617,hearts test,0.75,left,PLUS Fall,heart,plus,1
60305,3,1,8.62423038482666,15,right,0.526,hearts test,0.75,right,PLUS Fall,heart,plus,1
60307,3,1,8.82409286499023,9,right,0.538,hearts test,0.75,right,PLUS Fall,heart,plus,1
60307,3,1,8.82409286499023,68,left,0.749,mixed test,0.75,left,PLUS Fall,heart,plus,1
60308,3,0,8.88158798217773,10,left,0.43,hearts test,0.75,left,PLUS Fall,heart,plus,1
60308,3,0,8.88158798217773,13,right,0.491,hearts test,0.75,right,PLUS Fall,heart,plus,1
60308,3,0,8.88158798217773,14,left,0.46,hearts test,0.75,left,PLUS Fall,heart,plus,1
60308,3,0,8.88158798217773,52,left,0.7,mixed test,0.75,left,PLUS Fall,heart,plus,1
60308,3,0,8.88158798217773,68,right,0.492,mixed test,0.75,left,PLUS Fall,heart,plus,0
60308,3,0,8.88158798217773,69,right,0.737,mixed test,0.75,right,PLUS Fall,heart,plus,1
60309,3,1,8.54209423065186,11,left,0.557,hearts test,0.75,left,PLUS Fall,heart,plus,1
60310,3,0,8.55030822753906,9,right,0.441,hearts test,0.75,right,PLUS Fall,heart,plus,1
60310,3,0,8.55030822753906,52,left,0.66,mixed test,0.75,left,PLUS Fall,heart,plus,1
60310,3,0,8.55030822753906,64,left,0.619,mixed test,0.75,left,PLUS Fall,heart,plus,1
60310,3,0,8.55030822753906,65,left,0.492,mixed test,0.75,left,PLUS Fall,heart,plus,1
60310,3,0,8.55030822753906,68,left,0.505,mixed test,0.75,left,PLUS Fall,heart,plus,1
60314,3,1,9.3196439743042,13,right,0.507,hearts test,0.75,right,PLUS Fall,heart,plus,1
60314,3,1,9.3196439743042,53,left,0.548,mixed test,0.75,left,PLUS Fall,heart,plus,1
60314,3,1,9.3196439743042,65,left,0.68,mixed test,0.75,left,PLUS Fall,heart,plus,1
60314,3,1,9.3196439743042,69,left,0.709,mixed test,0.75,right,PLUS Fall,heart,plus,0
60316,3,0,9.3169059753418,11,left,0.461,hearts test,0.75,left,PLUS Fall,heart,plus,1
60316,3,0,9.3169059753418,15,right,0.382,hearts test,0.75,right,PLUS Fall,heart,plus,1
60316,3,0,9.3169059753418,43,right,0.486,mixed test,0.75,right,PLUS Fall,heart,plus,1
60316,3,0,9.3169059753418,52,left,0.7,mixed test,0.75,left,PLUS Fall,heart,plus,1
60318,3,1,9.29500389099121,60,right,0.546,mixed test,0.75,right,PLUS Fall,heart,plus,1
60318,3,1,9.29500389099121,62,right,0.701,mixed test,0.75,right,PLUS Fall,heart,plus,1
60318,3,1,9.29500389099121,65,left,0.591,mixed test,0.75,left,PLUS Fall,heart,plus,1
60319,3,0,9.03490734100342,11,left,0.544,hearts test,0.75,left,PLUS Fall,heart,plus,1
60319,3,0,9.03490734100342,14,left,0.593,hearts test,0.75,left,PLUS Fall,heart,plus,1
60319,3,0,9.03490734100342,17,left,0.66,hearts test,0.75,left,PLUS Fall,heart,plus,1
60319,3,0,9.03490734100342,52,left,0.514,mixed test,0.75,left,PLUS Fall,heart,plus,1
60320,3,1,9.17727565765381,13,right,0.411,hearts test,0.75,right,PLUS Fall,heart,plus,1
60321,3,1,8.79397678375244,10,left,0.354,hearts test,0.75,left,PLUS Fall,heart,plus,1
60321,3,1,8.79397678375244,53,left,0.442,mixed test,0.75,left,PLUS Fall,heart,plus,1
60321,3,1,8.79397678375244,70,right,0.455,mixed test,0.75,right,PLUS Fall,heart,plus,1
60322,3,1,9.27310085296631,62,left,0.327,mixed test,0.75,right,PLUS Fall,heart,plus,0
60323,3,1,8.98562622070312,12,right,0.479,hearts test,0.75,right,PLUS Fall,heart,plus,1
60323,3,1,8.98562622070312,19,left,0.571,hearts test,0.75,left,PLUS Fall,heart,plus,1
60323,3,1,8.98562622070312,20,left,0.161,hearts test,0.75,right,PLUS Fall,heart,plus,0
60323,3,1,8.98562622070312,43,left,0.522,mixed test,0.75,right,PLUS Fall,heart,plus,0
60323,3,1,8.98562622070312,70,left,0.171,mixed test,0.75,right,PLUS Fall,heart,plus,0
62201,4,0,10.2313480377197,11,left,0.609,hearts test,0.75,left,PLUS Fall,heart,plus,1
62202,4,0,10.0318279266357,13,right,0.521,hearts test,0.75,right,PLUS Fall,heart,plus,1
62202,4,0,10.0318279266357,19,left,0.541,hearts test,0.75,left,PLUS Fall,heart,plus,1
62202,4,0,10.0318279266357,42,right,0.546,mixed test,0.75,right,PLUS Fall,heart,plus,1
62203,4,1,10.2149209976196,9,right,0.464,hearts test,0.75,right,PLUS Fall,heart,plus,1
62203,4,1,10.2149209976196,14,left,0.426,hearts test,0.75,left,PLUS Fall,heart,plus,1
62203,4,1,10.2149209976196,59,left,0.638,mixed test,0.75,left,PLUS Fall,heart,plus,1
62204,4,0,9.79329204559326,16,right,0.489,hearts test,0.75,right,PLUS Fall,heart,plus,1
62204,4,0,9.79329204559326,19,left,0.456,hearts test,0.75,left,PLUS Fall,heart,plus,1
62204,4,0,9.79329204559326,43,right,0.632,mixed test,0.75,right,PLUS Fall,heart,plus,1
62204,4,0,9.79329204559326,53,left,0.594,mixed test,0.75,left,PLUS Fall,heart,plus,1
62205,4,1,9.58795356750488,12,right,0.574,hearts test,0.75,right,PLUS Fall,heart,plus,1
62206,4,1,9.56331253051758,9,right,0.487,hearts test,0.75,right,PLUS Fall,heart,plus,1
62206,4,1,9.56331253051758,18,left,0.515,hearts test,0.75,left,PLUS Fall,heart,plus,1
62206,4,1,9.56331253051758,19,left,0.478,hearts test,0.75,left,PLUS Fall,heart,plus,1
62206,4,1,9.56331253051758,20,right,0.422,hearts test,0.75,right,PLUS Fall,heart,plus,1
62208,4,1,9.89459228515625,10,left,0.441,hearts test,0.75,left,PLUS Fall,heart,plus,1
62208,4,1,9.89459228515625,15,right,0.413,hearts test,0.75,right,PLUS Fall,heart,plus,1
62208,4,1,9.89459228515625,70,right,0.687,mixed test,0.75,right,PLUS Fall,heart,plus,1
62209,4,1,10.0318279266357,10,left,0.545,hearts test,0.75,left,PLUS Fall,heart,plus,1
62209,4,1,10.0318279266357,43,right,0.653,mixed test,0.75,right,PLUS Fall,heart,plus,1
62209,4,1,10.0318279266357,55,left,0.72,mixed test,0.75,right,PLUS Fall,heart,plus,0
62209,4,1,10.0318279266357,70,right,0.733,mixed test,0.75,right,PLUS Fall,heart,plus,1
62210,4,1,9.72210788726807,19,left,0.489,hearts test,0.75,left,PLUS Fall,heart,plus,1
62211,4,1,9.98494148254395,11,left,0.531,hearts test,0.75,left,PLUS Fall,heart,plus,1
62211,4,1,9.98494148254395,16,right,0.52,hearts test,0.75,right,PLUS Fall,heart,plus,1
62211,4,1,9.98494148254395,19,left,0.55,hearts test,0.75,left,PLUS Fall,heart,plus,1
62211,4,1,9.98494148254395,51,right,0.716,mixed test,0.75,right,PLUS Fall,heart,plus,1
62214,4,1,10.3271732330322,14,left,0.427,hearts test,0.75,left,PLUS Fall,heart,plus,1
62214,4,1,10.3271732330322,18,left,0.551,hearts test,0.75,left,PLUS Fall,heart,plus,1
62214,4,1,10.3271732330322,42,left,0.522,mixed test,0.75,right,PLUS Fall,heart,plus,0
62215,4,1,10.3080081939697,13,right,0.426,hearts test,0.75,right,PLUS Fall,heart,plus,1
62215,4,1,10.3080081939697,60,left,0.561,mixed test,0.75,right,PLUS Fall,heart,plus,0
62215,4,1,10.3080081939697,62,right,0.693,mixed test,0.75,right,PLUS Fall,heart,plus,1
62216,4,0,10.2915811538696,9,right,0.495,hearts test,0.75,right,PLUS Fall,heart,plus,1
62216,4,0,10.2915811538696,11,left,0.598,hearts test,0.75,left,PLUS Fall,heart,plus,1
62216,4,0,10.2915811538696,13,right,0.414,hearts test,0.75,right,PLUS Fall,heart,plus,1
62216,4,0,10.2915811538696,17,left,0.413,hearts test,0.75,left,PLUS Fall,heart,plus,1
62216,4,0,10.2915811538696,68,right,0.422,mixed test,0.75,left,PLUS Fall,heart,plus,0
62217,4,0,9.91375732421875,42,right,0.622,mixed test,0.75,right,PLUS Fall,heart,plus,1
62217,4,0,9.91375732421875,55,right,0.726,mixed test,0.75,right,PLUS Fall,heart,plus,1
62218,4,0,10.140998840332,9,right,0.37,hearts test,0.75,right,PLUS Fall,heart,plus,1
62218,4,0,10.140998840332,13,right,0.39,hearts test,0.75,right,PLUS Fall,heart,plus,1
62218,4,0,10.140998840332,64,right,0.489,mixed test,0.75,left,PLUS Fall,heart,plus,0
62218,4,0,10.140998840332,69,right,0.678,mixed test,0.75,right,PLUS Fall,heart,plus,1
62219,4,0,9.87542819976807,10,left,0.44,hearts test,0.75,left,PLUS Fall,heart,plus,1
62219,4,0,9.87542819976807,14,left,0.516,hearts test,0.75,left,PLUS Fall,heart,plus,1
62219,4,0,9.87542819976807,17,left,0.523,hearts test,0.75,left,PLUS Fall,heart,plus,1
62219,4,0,9.87542819976807,18,left,0.569,hearts test,0.75,left,PLUS Fall,heart,plus,1
62219,4,0,9.87542819976807,20,right,0.475,hearts test,0.75,right,PLUS Fall,heart,plus,1
62219,4,0,9.87542819976807,44,left,0.662,mixed test,0.75,left,PLUS Fall,heart,plus,1
62219,4,0,9.87542819976807,48,right,0.531,mixed test,0.75,left,PLUS Fall,heart,plus,0
62219,4,0,9.87542819976807,53,right,0.49,mixed test,0.75,left,PLUS Fall,heart,plus,0
62219,4,0,9.87542819976807,62,right,0.72,mixed test,0.75,right,PLUS Fall,heart,plus,1
62219,4,0,9.87542819976807,65,left,0.646,mixed test,0.75,left,PLUS Fall,heart,plus,1
62220,4,0,9.72484588623047,44,left,0.482,mixed test,0.75,left,PLUS Fall,heart,plus,1
62220,4,0,9.72484588623047,65,right,0,mixed test,0.75,left,PLUS Fall,heart,plus,0
62221,4,1,10.496919631958,12,right,0.56,hearts test,0.75,right,PLUS Fall,heart,plus,1
62221,4,1,10.496919631958,20,right,0.523,hearts test,0.75,right,PLUS Fall,heart,plus,1
62221,4,1,10.496919631958,53,left,0.711,mixed test,0.75,left,PLUS Fall,heart,plus,1
62222,4,0,10.8172483444214,13,right,0.412,hearts test,0.75,right,PLUS Fall,heart,plus,1
62222,4,0,10.8172483444214,19,left,0.417,hearts test,0.75,left,PLUS Fall,heart,plus,1
62222,4,0,10.8172483444214,20,right,0.368,hearts test,0.75,right,PLUS Fall,heart,plus,1
62222,4,0,10.8172483444214,52,left,0.668,mixed test,0.75,left,PLUS Fall,heart,plus,1
62222,4,0,10.8172483444214,55,right,0.498,mixed test,0.75,right,PLUS Fall,heart,plus,1
62224,4,0,10.2340860366821,12,right,0.6,hearts test,0.75,right,PLUS Fall,heart,plus,1
62224,4,0,10.2340860366821,53,right,0.717,mixed test,0.75,left,PLUS Fall,heart,plus,0
62225,4,0,10.1601638793945,14,left,0.4,hearts test,0.75,left,PLUS Fall,heart,plus,1
62225,4,0,10.1601638793945,43,right,0.506,mixed test,0.75,right,PLUS Fall,heart,plus,1
62225,4,0,10.1601638793945,53,left,0.618,mixed test,0.75,left,PLUS Fall,heart,plus,1
62225,4,0,10.1601638793945,70,right,0.587,mixed test,0.75,right,PLUS Fall,heart,plus,1
62226,4,0,10.2067079544067,12,right,0.374,hearts test,0.75,right,PLUS Fall,heart,plus,1
62226,4,0,10.2067079544067,44,left,0.678,mixed test,0.75,left,PLUS Fall,heart,plus,1
62226,4,0,10.2067079544067,64,left,0.662,mixed test,0.75,left,PLUS Fall,heart,plus,1
62226,4,0,10.2067079544067,70,right,0.686,mixed test,0.75,right,PLUS Fall,heart,plus,1
62227,4,1,9.71663284301758,13,right,0.684,hearts test,0.75,right,PLUS Fall,heart,plus,1
62229,4,NA,10.0318279266357,9,right,0.748,hearts test,0.75,right,PLUS Fall,heart,plus,1
62229,4,NA,10.0318279266357,12,right,0.544,hearts test,0.75,right,PLUS Fall,heart,plus,1
62230,4,NA,10.0318279266357,14,left,0.41,hearts test,0.75,left,PLUS Fall,heart,plus,1
62230,4,NA,10.0318279266357,17,left,0.472,hearts test,0.75,left,PLUS Fall,heart,plus,1
62230,4,NA,10.0318279266357,53,left,0.49,mixed test,0.75,left,PLUS Fall,heart,plus,1
62230,4,NA,10.0318279266357,65,left,0.655,mixed test,0.75,left,PLUS Fall,heart,plus,1
62701,3,1,8.87611198425293,10,left,0.46,hearts test,0.75,left,PLUS Fall,heart,plus,1
62701,3,1,8.87611198425293,12,right,0.389,hearts test,0.75,right,PLUS Fall,heart,plus,1
62701,3,1,8.87611198425293,18,left,0.473,hearts test,0.75,left,PLUS Fall,heart,plus,1
62701,3,1,8.87611198425293,20,right,0.438,hearts test,0.75,right,PLUS Fall,heart,plus,1
62701,3,1,8.87611198425293,52,left,0.544,mixed test,0.75,left,PLUS Fall,heart,plus,1
62702,3,0,8.46543502807617,12,right,0.415,hearts test,0.75,right,PLUS Fall,heart,plus,1
62702,3,0,8.46543502807617,14,left,0.448,hearts test,0.75,left,PLUS Fall,heart,plus,1
62702,3,0,8.46543502807617,15,right,0.426,hearts test,0.75,right,PLUS Fall,heart,plus,1
62702,3,0,8.46543502807617,16,right,0.554,hearts test,0.75,right,PLUS Fall,heart,plus,1
62702,3,0,8.46543502807617,19,left,0.573,hearts test,0.75,left,PLUS Fall,heart,plus,1
62702,3,0,8.46543502807617,42,right,0.737,mixed test,0.75,right,PLUS Fall,heart,plus,1
62702,3,0,8.46543502807617,62,right,0.74,mixed test,0.75,right,PLUS Fall,heart,plus,1
62702,3,0,8.46543502807617,65,left,0.698,mixed test,0.75,left,PLUS Fall,heart,plus,1
62703,3,0,8.70910358428955,9,right,0.422,hearts test,0.75,right,PLUS Fall,heart,plus,1
62703,3,0,8.70910358428955,53,left,0.526,mixed test,0.75,left,PLUS Fall,heart,plus,1
62703,3,0,8.70910358428955,68,right,0.334,mixed test,0.75,left,PLUS Fall,heart,plus,0
62704,3,0,9.20465469360352,48,left,0.523,mixed test,0.75,left,PLUS Fall,heart,plus,1
62704,3,0,9.20465469360352,51,right,0.414,mixed test,0.75,right,PLUS Fall,heart,plus,1
62704,3,0,9.20465469360352,65,right,0.561,mixed test,0.75,left,PLUS Fall,heart,plus,0
62705,3,1,8.81314182281494,9,right,0.46,hearts test,0.75,right,PLUS Fall,heart,plus,1
62705,3,1,8.81314182281494,15,right,0.478,hearts test,0.75,right,PLUS Fall,heart,plus,1
62705,3,1,8.81314182281494,20,right,0.387,hearts test,0.75,right,PLUS Fall,heart,plus,1
